// General information: 
//  MT Manager version: 2022.0.0 
//  XDA version: 2022.0.0 build 7085 rev 119802 built on 2022-11-08
// Device information: 
//  DeviceId: 037004D1
//  ProductCode: MTi-300-2A5G4
//  Firmware Version: 1.4.1
//  Hardware Version: 2.1.0
// Device settings: 
//  Filter Profile: general(39.16)
//  Option Flags: Orientation Smoother Disabled, Position/Velocity Smoother Disabled, Continuous Zero Rotation Update Disabled, AHS Disabled, ICC Disabled
// Coordinate system: ENU
PacketCounter	SampleTimeFine	Acc_X	Acc_Y	Acc_Z	Gyr_X	Gyr_Y	Gyr_Z	Roll	Pitch	Yaw
50373	9475426	-9.814700	-0.073177	0.089576	-0.007585	-0.004040	-0.006253			
50374	9475451	-9.841543	-0.059199	0.088251	-0.010386	-0.002274	-0.004244	-26.335466	88.749771	82.471275
50375	9475476	-9.827773	-0.067920	0.112187	-0.007358	-0.004865	-0.002857			
50376	9475501	-9.834778	-0.066680	0.088204	-0.003126	-0.002724	-0.001447			
50377	9475526	-9.823018	-0.063463	0.105373	-0.006881	-0.001428	-0.000982			
50378	9475551	-9.838205	-0.072926	0.117389	-0.003898	0.003199	-0.006479	-26.349211	88.748520	82.458557
50379	9475576	-9.818392	-0.062765	0.127446	-0.005762	-0.004639	-0.001448			
50380	9475601	-9.840427	-0.048722	0.117945	0.003631	-0.003827	-0.001535			
50381	9475626	-9.808479	-0.088122	0.115900	-0.003679	-0.003378	-0.000040			
50382	9475651	-9.848124	-0.035764	0.105952	-0.009280	0.001955	0.001034	-26.292570	88.748833	82.514046
50383	9475676	-9.830122	-0.069883	0.112118	-0.006238	0.000122	-0.004625			
50384	9475701	-9.839326	-0.057565	0.111231	-0.004826	-0.001581	0.000103			
50385	9475726	-9.822659	-0.055967	0.109222	-0.008793	-0.003798	-0.003235			
50386	9475751	-9.832273	-0.052461	0.116873	-0.000291	0.002420	-0.007649	-26.336567	88.748520	82.470177
50387	9475776	-9.859175	-0.068203	0.108937	-0.002958	-0.001873	0.000614			
50388	9475801	-9.818161	-0.076381	0.116398	-0.004448	-0.001580	-0.001568			
50389	9475826	-9.844976	-0.054108	0.093932	-0.008409	0.002350	-0.003973			
50390	9475851	-9.860431	-0.047949	0.117585	-0.000049	-0.002791	0.000606	-26.312408	88.747894	82.494667
50391	9475876	-9.831460	-0.082824	0.123571	-0.011878	0.002876	-0.002423			
50392	9475901	-9.832507	-0.073242	0.121225	-0.001940	0.000668	0.001970			
50393	9475926	-9.838218	-0.070957	0.115516	-0.003809	0.000364	-0.003029			
50394	9475951	-9.831474	-0.073077	0.106929	-0.007726	-0.007258	-0.000946	-26.290060	88.748520	82.517387
50395	9475976	-9.840250	-0.063455	0.119879	-0.006807	-0.002077	-0.003804			
50396	9476001	-9.855960	-0.064110	0.118987	-0.007202	-0.001898	-0.006172			
50397	9476026	-9.850657	-0.041080	0.142349	-0.002624	0.001885	0.001463			
50398	9476051	-9.817092	-0.058152	0.139429	-0.001377	-0.002742	0.004581	-26.260250	88.749146	82.546913
50399	9476076	-9.850752	-0.064564	0.126127	-0.007501	-0.001885	0.000815			
50400	9476101	-9.844444	-0.064287	0.105512	-0.003532	-0.002678	-0.008817			
50401	9476126	-9.826833	-0.070362	0.120696	-0.009219	0.002022	-0.000571			
50402	9476151	-9.845948	-0.061453	0.112673	0.001185	0.001110	0.001641	-26.258703	88.749458	82.548515
50403	9476176	-9.867551	-0.059775	0.137200	-0.008342	0.002290	-0.001724			
50404	9476201	-9.844417	-0.066133	0.106910	-0.005431	0.001307	-0.001480			
50405	9476226	-9.839069	-0.047420	0.126976	-0.008553	0.000927	-0.003468			
50406	9476251	-9.846282	-0.062525	0.091603	-0.004731	0.002041	0.002949	-26.261761	88.751030	82.546867
50407	9476276	-9.864979	-0.029599	0.122861	-0.007251	-0.003564	0.001323			
50408	9476301	-9.870553	-0.052334	0.146351	-0.005582	0.000080	-0.001419			
50409	9476326	-9.834538	-0.063830	0.121279	-0.005117	-0.002496	0.000098			
50410	9476351	-9.835146	-0.046094	0.105930	-0.004213	-0.002936	-0.003430	-26.218027	88.750084	82.591438
50411	9476376	-9.840841	-0.054410	0.119756	-0.008973	0.004156	-0.000240			
50412	9476401	-9.855765	-0.072405	0.104608	-0.007248	-0.002083	-0.001492			
50413	9476426	-9.838878	-0.059665	0.122278	-0.008169	-0.005332	-0.001641			
50414	9476451	-9.820241	-0.060212	0.112548	-0.002664	-0.001095	-0.000930	-26.193350	88.750717	82.617035
50415	9476476	-9.837336	-0.068606	0.121730	-0.004755	0.002424	-0.000961			
50416	9476501	-9.825598	-0.097074	0.129384	-0.007343	-0.002730	0.000744			
50417	9476526	-9.834109	-0.059606	0.121205	-0.002617	0.001222	-0.005594			
50418	9476551	-9.845793	-0.042748	0.127487	-0.004521	0.001000	-0.001872	-26.205545	88.751335	82.604973
50419	9476576	-9.847665	-0.078170	0.115135	-0.007434	-0.002347	-0.002262			
50420	9476601	-9.864676	-0.040622	0.096936	-0.006689	0.000641	-0.001672			
50421	9476626	-9.826992	-0.060052	0.124615	-0.006796	-0.004406	-0.004521			
50422	9476651	-9.852759	-0.041823	0.095506	-0.001565	-0.003466	0.000091	-26.189398	88.750397	82.621857
50423	9476676	-9.812078	-0.076138	0.133152	-0.004826	-0.003985	-0.005490			
50424	9476701	-9.839797	-0.064919	0.127502	-0.004850	-0.000809	-0.001049			
50425	9476726	-9.824739	-0.089489	0.128420	-0.007977	-0.001585	-0.004442			
50426	9476751	-9.818671	-0.073093	0.114892	-0.002740	0.001025	-0.005792	-26.234074	88.749458	82.577492
50427	9476776	-9.869051	-0.049658	0.127665	-0.008091	-0.001644	-0.001873			
50428	9476801	-9.877073	-0.043256	0.103206	-0.004476	0.001387	-0.004819			
50429	9476826	-9.820044	-0.077814	0.116345	-0.006105	0.000589	0.000052			
50430	9476851	-9.856503	-0.054499	0.112798	-0.004581	-0.003006	0.000420	-26.224997	88.749771	82.587700
50431	9476876	-9.843050	-0.064328	0.111690	-0.002864	0.000829	-0.005147			
50432	9476901	-9.835352	-0.068399	0.109233	0.001638	0.002861	0.001074			
50433	9476926	-9.813664	-0.090033	0.110088	-0.006236	0.002190	-0.006735			
50434	9476951	-9.841220	-0.073825	0.143798	-0.003242	0.000629	-0.005212	-26.298735	88.750084	82.513313
50435	9476976	-9.843284	-0.056057	0.132316	-0.009274	-0.000758	-0.002253			
50436	9477001	-9.832466	-0.065830	0.098210	-0.010441	0.002129	0.000010			
50437	9477026	-9.825486	-0.066711	0.126928	-0.007789	0.002876	-0.004804			
50438	9477051	-9.833728	-0.086937	0.113124	-0.006440	-0.003229	-0.000800	-26.311159	88.751030	82.502350
50439	9477076	-9.841561	-0.073933	0.121745	0.001800	0.001374	-0.003165			
50440	9477101	-9.843384	-0.076719	0.114575	-0.006059	0.000575	-0.006294			
50441	9477126	-9.834790	-0.072555	0.102553	-0.011276	-0.002149	-0.001039			
50442	9477151	-9.840657	-0.062268	0.106337	-0.006621	0.004713	0.000590	-26.344837	88.751335	82.470093
50443	9477176	-9.850131	-0.067138	0.107001	-0.006908	-0.004598	-0.000611			
50444	9477201	-9.835439	-0.067124	0.119887	-0.004308	-0.003834	0.000152			
50445	9477226	-9.820722	-0.062197	0.116939	-0.003010	-0.006598	-0.001660			
50446	9477251	-9.816420	-0.062565	0.116347	-0.006054	-0.001216	0.000873	-26.266539	88.750397	82.548286
50447	9477276	-9.843467	-0.072930	0.120389	-0.008984	-0.003918	-0.000539			
50448	9477301	-9.843742	-0.081253	0.104493	-0.003091	0.000452	0.001261			
50449	9477326	-9.834441	-0.081771	0.141443	-0.006281	-0.004725	-0.006899			
50450	9477351	-9.839243	-0.064196	0.112163	-0.004454	-0.001186	-0.000025	-26.238062	88.749771	82.577774
50451	9477376	-9.856425	-0.069543	0.128984	-0.001761	0.002202	-0.007316			
50452	9477401	-9.832938	-0.079563	0.126504	-0.005595	0.002405	-0.001985			
50453	9477426	-9.832705	-0.073362	0.151418	-0.004643	0.002477	-0.006030			
50454	9477451	-9.818344	-0.092818	0.101048	-0.004473	-0.001007	-0.005865	-26.341816	88.749931	82.473907
50455	9477476	-9.857504	-0.056605	0.122812	-0.007275	0.000559	-0.005643			
50456	9477501	-9.861096	-0.040125	0.132480	-0.005677	-0.007153	0.000335			
50457	9477526	-9.828258	-0.041260	0.138012	-0.009197	-0.001152	-0.002381			
50458	9477551	-9.835219	-0.054570	0.136587	-0.002855	-0.001094	-0.000286	-26.325144	88.749771	82.490448
50459	9477576	-9.849792	-0.055750	0.106008	-0.006047	-0.003487	-0.001444			
50460	9477601	-9.831256	-0.060511	0.122201	-0.004597	-0.000486	0.000300			
50461	9477626	-9.826851	-0.061681	0.105866	0.000383	-0.000332	-0.003240			
50462	9477651	-9.831053	-0.069794	0.108275	-0.006586	0.001286	-0.002952	-26.320301	88.749931	82.495033
50463	9477676	-9.850532	-0.068943	0.099318	-0.004579	-0.001454	-0.001816			
50464	9477701	-9.861933	-0.049157	0.130517	-0.004196	-0.005388	-0.002418			
50465	9477726	-9.808933	-0.052097	0.115355	-0.008605	0.000344	-0.003406			
50466	9477751	-9.840941	-0.041965	0.113125	-0.004916	-0.000550	0.001390	-26.298677	88.749458	82.517738
50467	9477776	-9.844410	-0.067520	0.107402	-0.002837	-0.001739	0.000288			
50468	9477801	-9.838474	-0.042160	0.098739	-0.004262	0.001271	0.001916			
50469	9477826	-9.842359	-0.049798	0.124651	-0.003886	-0.002930	-0.001574			
50470	9477851	-9.853029	-0.038643	0.134738	-0.000228	-0.001046	0.000416	-26.239861	88.749611	82.576042
50471	9477876	-9.849853	-0.056414	0.117511	0.000821	-0.002202	-0.003825			
50472	9477901	-9.838319	-0.070706	0.129890	-0.002798	0.000964	-0.003476			
50473	9477926	-9.830910	-0.057894	0.139474	-0.007209	-0.001240	-0.002578			
50474	9477951	-9.852129	-0.056180	0.101188	-0.009565	0.000525	-0.001477	-26.263388	88.749771	82.552177
50475	9477976	-9.860956	-0.037855	0.103652	-0.006689	-0.001691	-0.005019			
50476	9478001	-9.870398	-0.040130	0.095569	-0.004788	-0.002871	0.000356			
50477	9478026	-9.832215	-0.058550	0.120284	-0.004181	-0.001571	0.001256			
50478	9478051	-9.815997	-0.067134	0.132692	-0.004804	-0.002241	-0.001693	-26.230543	88.749298	82.585548
50479	9478076	-9.847868	-0.055185	0.101159	-0.003155	0.000054	-0.004449			
50480	9478101	-9.847683	-0.034404	0.107885	-0.009227	0.001884	-0.004031			
50481	9478126	-9.841090	-0.059720	0.093468	-0.011015	-0.000146	-0.000967			
50482	9478151	-9.849292	-0.059035	0.108408	-0.005755	-0.002435	0.001641	-26.238142	88.749146	82.580215
50483	9478176	-9.851414	-0.048484	0.123693	-0.011849	-0.000103	-0.004041			
50484	9478201	-9.848985	-0.057152	0.131437	-0.003016	-0.004733	-0.007609			
50485	9478226	-9.821665	-0.060270	0.112534	-0.002687	-0.000522	-0.003748			
50486	9478251	-9.864932	-0.063564	0.107529	-0.002438	-0.000578	-0.003673	-26.294640	88.748833	82.522690
50487	9478276	-9.856070	-0.055542	0.121328	-0.002226	0.001568	0.002104			
50488	9478301	-9.853011	-0.065765	0.107439	-0.004403	0.001134	-0.002763			
50489	9478326	-9.839666	-0.080313	0.137587	-0.001472	-0.000565	-0.002722			
50490	9478351	-9.850043	-0.079203	0.118489	-0.004718	-0.001270	-0.003098	-26.296875	88.748833	82.520943
50491	9478376	-9.864992	-0.063726	0.118035	-0.009380	0.000657	-0.002885			
50492	9478401	-9.848499	-0.057559	0.130925	-0.007389	-0.001639	-0.003482			
50493	9478426	-9.821349	-0.058716	0.134608	-0.005917	-0.001614	-0.003298			
50494	9478451	-9.831755	-0.053226	0.111713	-0.001426	-0.003721	-0.000681	-26.300974	88.748520	82.517227
50495	9478476	-9.867686	-0.050829	0.141998	-0.003426	0.000893	-0.002775			
50496	9478501	-9.812647	-0.064101	0.124988	-0.002065	-0.001605	0.000669			
50497	9478526	-9.821343	-0.061631	0.139881	-0.001812	-0.000054	-0.003611			
50498	9478551	-9.845865	-0.070614	0.117415	-0.006005	0.005300	-0.004534	-26.335571	88.749771	82.481659
50499	9478576	-9.848022	-0.091054	0.124169	-0.007601	0.001344	0.000514			
50500	9478601	-9.826018	-0.055086	0.110077	-0.004642	0.006810	-0.004275			
50501	9478626	-9.835452	-0.060319	0.108302	-0.011022	-0.000077	-0.000831			
50502	9478651	-9.826279	-0.083900	0.135577	-0.006093	0.002138	-0.002116	-26.367409	88.751495	82.451012
50503	9478676	-9.854314	-0.075204	0.108879	-0.003025	0.002916	0.004104			
50504	9478701	-9.839791	-0.057127	0.110714	-0.003788	0.001983	-0.002442			
50505	9478726	-9.810350	-0.081195	0.095740	-0.009057	-0.003600	-0.002401			
50506	9478751	-9.816114	-0.081943	0.106340	-0.009006	-0.003220	-0.003487	-26.349182	88.751335	82.471207
50507	9478776	-9.862793	-0.081982	0.105103	-0.005116	-0.002563	-0.002210			
50508	9478801	-9.826191	-0.077321	0.109164	-0.007924	0.003400	-0.001913			
50509	9478826	-9.844418	-0.071998	0.117360	-0.006174	0.006789	-0.002412			
50510	9478851	-9.837328	-0.057854	0.097352	-0.007297	-0.002934	-0.005344	-26.395067	88.752281	82.426262
50511	9478876	-9.838326	-0.066302	0.122212	-0.002338	0.002459	-0.004494			
50512	9478901	-9.852886	-0.043730	0.120345	-0.012067	0.000538	-0.005831			
50513	9478926	-9.819036	-0.043646	0.115847	-0.010687	0.001673	-0.000507			
50514	9478951	-9.823678	-0.052753	0.113527	-0.001892	-0.001609	-0.005937	-26.465202	88.753220	82.356598
50515	9478976	-9.865290	-0.040001	0.118059	-0.005174	-0.000754	-0.002129			
50516	9479001	-9.846717	-0.040225	0.117494	-0.004821	-0.001785	-0.002269			
50517	9479026	-9.807444	-0.055811	0.113446	-0.004102	-0.000288	-0.001304			
50518	9479051	-9.840737	-0.060537	0.115066	-0.002010	-0.001934	-0.005418	-26.478489	88.752281	82.343666
50519	9479076	-9.868753	-0.065550	0.112764	-0.007349	0.001474	-0.001216			
50520	9479101	-9.837268	-0.070910	0.114106	-0.007796	-0.002937	-0.002013			
50521	9479126	-9.829056	-0.094013	0.142785	-0.005619	-0.000635	-0.001304			
50522	9479151	-9.836674	-0.052199	0.135163	-0.002657	-0.000899	0.002797	-26.441477	88.752594	82.381760
50523	9479176	-9.832489	-0.070783	0.112123	-0.001584	-0.000751	-0.000094			
50524	9479201	-9.839032	-0.075041	0.100151	-0.010355	0.002697	-0.008322			
50525	9479226	-9.812312	-0.080899	0.103885	0.001226	0.000966	-0.004776			
50526	9479251	-9.837264	-0.037295	0.123149	-0.011873	0.000946	0.001095	-26.486345	88.754166	82.336105
50527	9479276	-9.848457	-0.047618	0.106941	-0.004804	0.000036	0.001977			
50528	9479301	-9.843087	-0.061540	0.114067	-0.005820	0.003298	-0.005192			
50529	9479326	-9.830623	-0.052494	0.158169	-0.005963	-0.004257	-0.001833			
50530	9479351	-9.820520	-0.048210	0.133163	-0.005202	-0.000049	-0.003414	-26.495737	88.753380	82.329025
50531	9479376	-9.846852	-0.073682	0.130419	-0.004777	0.000539	-0.005460			
50532	9479401	-9.857595	-0.039724	0.103587	-0.007299	0.001399	-0.005645			
50533	9479426	-9.830177	-0.066015	0.113046	-0.006890	0.001158	-0.000776			
50534	9479451	-9.834963	-0.062270	0.111666	-0.003400	0.000119	0.001462	-26.528444	88.754166	82.296265
50535	9479476	-9.856754	-0.079876	0.126174	-0.002529	-0.001355	-0.001179			
50536	9479501	-9.872234	-0.033404	0.147335	-0.007260	-0.001629	-0.001873			
50537	9479526	-9.841369	-0.066382	0.152937	-0.002551	-0.001109	-0.005797			
50538	9479551	-9.847623	-0.059685	0.149627	-0.008219	-0.001325	0.000246	-26.524590	88.754478	82.300011
50539	9479576	-9.856376	-0.073787	0.129544	-0.009675	-0.002457	-0.005277			
50540	9479601	-9.873406	-0.043532	0.126265	-0.003886	-0.004804	-0.000297			
50541	9479626	-9.820139	-0.065341	0.105386	-0.008008	-0.002426	-0.004381			
50542	9479651	-9.849906	-0.055582	0.124670	-0.006182	0.000647	-0.003599	-26.541258	88.753380	82.284805
50543	9479676	-9.833222	-0.054823	0.121211	-0.006211	0.001684	-0.000837			
50544	9479701	-9.843069	-0.053978	0.095431	-0.006402	-0.002122	0.003442			
50545	9479726	-9.841574	-0.027617	0.107344	-0.005440	0.002092	0.000703			
50546	9479751	-9.869830	-0.023065	0.124852	-0.002204	-0.005488	-0.000626	-26.475025	88.753380	82.352272
50547	9479776	-9.825563	-0.047274	0.098211	-0.004308	-0.001967	-0.002466			
50548	9479801	-9.836161	-0.033067	0.089084	-0.005266	0.001949	-0.006418			
50549	9479826	-9.845689	-0.042999	0.109360	-0.005384	-0.002839	-0.008170			
50550	9479851	-9.828520	-0.079660	0.103035	-0.004247	-0.001842	-0.001828	-26.534668	88.752907	82.292419
50551	9479876	-9.874302	-0.069578	0.094609	-0.004557	0.000034	-0.000978			
50552	9479901	-9.841530	-0.055747	0.079174	-0.002785	-0.005890	-0.005253			
50553	9479926	-9.872630	-0.054588	0.100394	-0.003710	-0.003004	-0.006585			
50554	9479951	-9.856415	-0.066037	0.120830	0.000335	0.001220	-0.001758	-26.558811	88.751961	82.267044
50555	9479976	-9.854746	-0.076642	0.102257	-0.002061	-0.002387	-0.003695			
50556	9480001	-9.843758	-0.087227	0.117955	-0.007239	-0.002614	-0.005549			
50557	9480026	-9.837985	-0.053453	0.118372	-0.000550	0.000611	-0.003111			
50558	9480051	-9.810887	-0.058630	0.136946	-0.004354	-0.002623	-0.004919	-26.600431	88.750397	82.225334
50559	9480076	-9.859586	-0.038453	0.115135	-0.014588	-0.000662	-0.001352			
50560	9480101	-9.830268	-0.036636	0.145619	-0.003931	0.002690	-0.000529			
50561	9480126	-9.801615	-0.061287	0.105274	-0.003196	-0.002722	-0.001971			
50562	9480151	-9.817648	-0.076281	0.109658	-0.004590	0.000803	-0.002840	-26.602831	88.751335	82.223824
50563	9480176	-9.838253	-0.066573	0.112162	-0.005719	-0.001667	0.000994			
50564	9480201	-9.840906	-0.051632	0.125596	0.003998	0.001097	0.001299			
50565	9480226	-9.821640	-0.063529	0.114511	-0.000383	-0.004546	0.000641			
50566	9480251	-9.815715	-0.082075	0.118316	-0.004897	-0.003466	-0.000882	-26.525452	88.751335	82.299301
50567	9480276	-9.847379	-0.059603	0.109360	-0.003497	0.000560	-0.004509			
50568	9480301	-9.809810	-0.092778	0.108646	-0.004302	0.000034	-0.002278			
50569	9480326	-9.835228	-0.081338	0.113654	-0.001845	-0.003159	-0.004154			
50570	9480351	-9.847911	-0.056777	0.111666	-0.001818	0.004473	-0.003533	-26.576761	88.751335	82.247337
50571	9480376	-9.893733	-0.082874	0.104805	-0.003786	-0.002286	-0.003307			
50572	9480401	-9.839355	-0.048833	0.099765	-0.006954	-0.005305	-0.000110			
50573	9480426	-9.843617	-0.067469	0.134254	-0.001568	-0.001468	-0.001067			
50574	9480451	-9.838629	-0.076127	0.115032	-0.006580	-0.000583	0.001769	-26.526159	88.751030	82.298332
50575	9480476	-9.844261	-0.050836	0.127472	-0.002804	0.003091	-0.005977			
50576	9480501	-9.845572	-0.053922	0.113712	-0.003585	-0.006738	-0.003269			
50577	9480526	-9.842646	-0.030924	0.132316	-0.007090	-0.000985	-0.003101			
50578	9480551	-9.830838	-0.063631	0.138020	-0.007519	-0.001708	-0.004387	-26.567432	88.750397	82.256699
50579	9480576	-9.844989	-0.070733	0.129446	-0.004858	-0.000617	-0.000413			
50580	9480601	-9.824824	-0.075027	0.113545	-0.000906	-0.000167	-0.002027			
50581	9480626	-9.835909	-0.071115	0.126024	-0.003174	0.000630	-0.004841			
50582	9480651	-9.851962	-0.050490	0.139571	-0.005943	-0.000046	0.003766	-26.549778	88.750717	82.274200
50583	9480676	-9.849203	-0.065229	0.107393	-0.008430	0.001256	0.002103			
50584	9480701	-9.831081	-0.068936	0.111626	-0.002517	0.001995	-0.004448			
50585	9480726	-9.808265	-0.065326	0.112463	0.000574	0.001411	-0.005099			
50586	9480751	-9.848307	-0.069358	0.125184	-0.006531	-0.000854	-0.006048	-26.601223	88.750870	82.223495
50587	9480776	-9.829049	-0.078328	0.109278	-0.006874	-0.003888	-0.002412			
50588	9480801	-9.842949	-0.070884	0.107443	-0.005464	-0.004128	-0.004148			
50589	9480826	-9.829240	-0.059753	0.103956	-0.004527	0.000736	-0.005727			
50590	9480851	-9.849614	-0.055331	0.076753	-0.003147	-0.000273	-0.003362	-26.632849	88.750397	82.191025
50591	9480876	-9.839563	-0.078045	0.115070	-0.003330	-0.002596	-0.002097			
50592	9480901	-9.838570	-0.069146	0.090575	-0.008774	-0.000305	-0.002776			
50593	9480926	-9.806651	-0.074035	0.098647	-0.005099	-0.003010	0.000536			
50594	9480951	-9.851384	-0.081398	0.109843	-0.001824	-0.001138	0.002848	-26.582001	88.750397	82.241936
50595	9480976	-9.853542	-0.062959	0.111286	-0.005949	-0.000700	-0.000601			
50596	9481001	-9.851271	-0.058363	0.120858	-0.003493	0.000562	-0.001562			
50597	9481026	-9.846650	-0.060633	0.147696	-0.006408	-0.002526	-0.004393			
50598	9481051	-9.879857	-0.058178	0.121015	-0.007334	-0.000983	0.002097	-26.559868	88.750397	82.265610
50599	9481076	-9.879989	-0.042927	0.112394	-0.003578	-0.002339	0.000544			
50600	9481101	-9.856236	-0.071939	0.103158	-0.004156	-0.002681	-0.002478			
50601	9481126	-9.861618	-0.065520	0.112788	-0.003524	-0.000668	-0.003938			
50602	9481151	-9.862625	-0.052426	0.096935	-0.004905	0.000930	-0.001554	-26.550694	88.750084	82.274467
50603	9481176	-9.857707	-0.064185	0.094578	-0.003412	-0.004016	-0.000818			
50604	9481201	-9.838504	-0.059418	0.137565	-0.005299	-0.000890	-0.003493			
50605	9481226	-9.803593	-0.059502	0.115838	-0.002468	-0.000831	0.003746			
50606	9481251	-9.854536	-0.062668	0.117988	-0.004143	0.000674	-0.005279	-26.531015	88.750244	82.293297
50607	9481276	-9.860681	-0.031509	0.123783	0.001982	-0.002506	-0.003965			
50608	9481301	-9.836017	-0.058571	0.118888	-0.005399	-0.003918	0.000148			
50609	9481326	-9.850173	-0.037107	0.130967	-0.002563	-0.006196	0.001863			
50610	9481351	-9.849143	-0.074383	0.117447	-0.006342	0.001813	0.000949	-26.465853	88.750084	82.357307
50611	9481376	-9.822742	-0.060643	0.133643	-0.008214	-0.000177	-0.007460			
50612	9481401	-9.837429	-0.061056	0.120810	-0.006823	-0.003569	-0.004399			
50613	9481426	-9.821653	-0.067052	0.122619	-0.002949	-0.000270	-0.002022			
50614	9481451	-9.867459	-0.053209	0.109875	-0.005724	0.002398	-0.002830	-26.521589	88.749771	82.302521
50615	9481476	-9.860602	-0.079994	0.133716	-0.009842	0.007699	0.000928			
50616	9481501	-9.835224	-0.075938	0.101625	-0.004777	0.000471	-0.005342			
50617	9481526	-9.837690	-0.078628	0.121273	-0.004543	-0.002751	-0.004466			
50618	9481551	-9.862707	-0.054141	0.114232	-0.007221	-0.002667	-0.000736	-26.548527	88.750244	82.277100
50619	9481576	-9.829889	-0.054837	0.122667	-0.004151	-0.002940	-0.002418			
50620	9481601	-9.858412	-0.065785	0.135256	-0.004916	0.001121	-0.003031			
50621	9481626	-9.842798	-0.055116	0.128980	-0.007288	-0.003257	-0.006895			
50622	9481651	-9.855432	-0.040253	0.139083	-0.002421	-0.001042	-0.005354	-26.596260	88.749146	82.229454
50623	9481676	-9.865759	-0.047302	0.131547	-0.003003	-0.004332	0.000529			
50624	9481701	-9.872091	-0.029629	0.117549	-0.005558	0.001566	-0.001106			
50625	9481726	-9.826062	-0.061111	0.131739	-0.002457	0.000186	-0.005482			
50626	9481751	-9.844703	-0.058982	0.137600	-0.002666	0.001101	-0.000085	-26.589268	88.749458	82.235672
50627	9481776	-9.854746	-0.052409	0.130916	-0.004098	0.001651	-0.002776			
50628	9481801	-9.849363	-0.060312	0.122735	-0.000338	0.002037	-0.004260			
50629	9481826	-9.821516	-0.072107	0.110654	-0.004964	-0.001664	-0.003946			
50630	9481851	-9.828293	-0.073403	0.132206	-0.003324	0.001803	0.002223	-26.612471	88.750717	82.211197
50631	9481876	-9.829008	-0.078675	0.103486	-0.004253	0.000426	-0.001752			
50632	9481901	-9.841919	-0.035719	0.103057	-0.001830	0.000459	-0.005223			
50633	9481926	-9.844349	-0.074274	0.109795	-0.003377	-0.001119	-0.004590			
50634	9481951	-9.826225	-0.082795	0.124551	-0.001799	0.001629	-0.002338	-26.658855	88.751175	82.163620
50635	9481976	-9.813112	-0.096160	0.109623	-0.003894	0.001267	-0.002143			
50636	9482001	-9.825653	-0.060757	0.141807	-0.005117	-0.000566	-0.003175			
50637	9482026	-9.833171	-0.063001	0.129346	-0.004004	0.002950	-0.001614			
50638	9482051	-9.831440	-0.085730	0.126982	-0.005323	0.001886	-0.002387	-26.691467	88.751961	82.131294
50639	9482076	-9.850957	-0.041165	0.111223	-0.002193	0.004071	-0.003920			
50640	9482101	-9.839678	-0.071953	0.119349	-0.005689	-0.000636	-0.002277			
50641	9482126	-9.822970	-0.065365	0.103007	-0.010492	-0.000983	-0.003859			
50642	9482151	-9.817998	-0.085251	0.107780	-0.006998	-0.004080	-0.001581	-26.717409	88.751495	82.107300
50643	9482176	-9.850311	-0.056887	0.116051	-0.009054	-0.001794	-0.002076			
50644	9482201	-9.844738	-0.050301	0.124620	-0.005499	0.001234	-0.005536			
50645	9482226	-9.839803	-0.055645	0.109775	-0.006659	-0.000323	0.000621			
50646	9482251	-9.833532	-0.060756	0.105907	-0.006390	-0.000842	-0.001438	-26.724863	88.751961	82.100670
50647	9482276	-9.823233	-0.055206	0.125020	-0.006203	-0.000253	0.001773			
50648	9482301	-9.844410	-0.076850	0.125627	-0.004859	-0.000687	-0.001946			
50649	9482326	-9.829700	-0.061635	0.104443	-0.005151	0.000536	-0.001563			
50650	9482351	-9.864968	-0.064098	0.114203	-0.005493	0.001377	-0.001103	-26.706383	88.753532	82.118782
50651	9482376	-9.849320	-0.078961	0.077741	-0.004487	-0.004095	0.002584			
50652	9482401	-9.873027	-0.064606	0.110381	-0.006033	0.002404	0.002237			
50653	9482426	-9.836308	-0.074328	0.120298	-0.007407	0.000748	-0.005269			
50654	9482451	-9.831297	-0.088286	0.108299	-0.006390	-0.000909	-0.002596	-26.681452	88.753220	82.145866
50655	9482476	-9.830123	-0.074722	0.121734	-0.007783	-0.001644	-0.003104			
50656	9482501	-9.849358	-0.061225	0.123243	-0.003806	-0.001641	-0.003561			
50657	9482526	-9.839076	-0.041552	0.116963	-0.005293	-0.001019	-0.001442			
50658	9482551	-9.843765	-0.055193	0.132847	-0.004715	-0.001729	-0.007662	-26.717854	88.751961	82.110634
50659	9482576	-9.860514	-0.060887	0.157320	-0.004533	-0.002673	0.000536			
50660	9482601	-9.828699	-0.075660	0.125581	-0.006095	-0.001733	0.001127			
50661	9482626	-9.850025	-0.049479	0.131864	-0.003867	-0.001505	-0.001191			
50662	9482651	-9.833388	-0.043540	0.124133	-0.005381	-0.002709	-0.005235	-26.682522	88.751648	82.145866
50663	9482676	-9.845792	-0.039314	0.118940	-0.006846	-0.002664	-0.002278			
50664	9482701	-9.843378	-0.054860	0.146715	-0.003707	-0.002609	-0.002606			
50665	9482726	-9.836221	-0.051320	0.135637	-0.003238	-0.001244	-0.002861			
50666	9482751	-9.867941	-0.062482	0.129101	-0.001773	-0.003025	-0.000626	-26.665203	88.750557	82.162979
50667	9482776	-9.853528	-0.055615	0.094093	-0.004786	-0.005145	-0.003001			
50668	9482801	-9.837711	-0.071348	0.110217	-0.012289	0.001508	-0.003785			
50669	9482826	-9.857027	-0.058517	0.126701	-0.004411	-0.004359	0.001620			
50670	9482851	-9.842295	-0.055009	0.125573	-0.004396	0.000802	-0.004771	-26.664877	88.750397	82.164314
50671	9482876	-9.862362	-0.055420	0.135325	-0.001611	-0.002383	-0.003575			
50672	9482901	-9.828298	-0.066545	0.117432	-0.003776	-0.004606	-0.001271			
50673	9482926	-9.816485	-0.049545	0.100506	-0.002535	-0.001027	0.001432			
50674	9482951	-9.814894	-0.062796	0.099139	-0.006080	-0.002646	-0.001965	-26.624979	88.750397	82.202110
50675	9482976	-9.847039	-0.044168	0.101603	-0.006799	0.002588	0.005123			
50676	9483001	-9.825344	-0.074584	0.120158	-0.003453	0.005999	0.000000			
50677	9483026	-9.856121	-0.055775	0.127621	-0.002012	-0.002265	-0.008057			
50678	9483051	-9.875160	-0.052967	0.120919	0.001778	0.002213	-0.002526	-26.643496	88.751648	82.183197
50679	9483076	-9.853578	-0.063617	0.119878	-0.002958	0.002123	-0.000721			
50680	9483101	-9.834693	-0.061899	0.143277	-0.002868	0.000753	-0.008427			
50681	9483126	-9.836376	-0.055884	0.093439	-0.002897	0.001797	-0.005019			
50682	9483151	-9.849519	-0.057232	0.144316	-0.005491	0.001378	0.000820	-26.700233	88.752907	82.125504
50683	9483176	-9.865898	-0.070925	0.124322	-0.005451	-0.001927	-0.000226			
50684	9483201	-9.844099	-0.066508	0.131906	-0.002623	-0.004914	-0.004351			
50685	9483226	-9.829265	-0.070562	0.129342	-0.006266	0.001419	-0.001685			
50686	9483251	-9.826220	-0.057529	0.150435	-0.003940	0.001015	0.000364	-26.683256	88.752907	82.142540
50687	9483276	-9.847559	-0.040477	0.101598	-0.003426	0.004764	-0.001413			
50688	9483301	-9.845535	-0.061697	0.123212	-0.003904	-0.000872	-0.007217			
50689	9483326	-9.844219	-0.035560	0.088205	-0.000761	-0.000820	-0.005810			
50690	9483351	-9.882045	-0.034999	0.118633	-0.003807	-0.001769	-0.004268	-26.757185	88.752747	82.067741
50691	9483376	-9.829341	-0.061469	0.121720	-0.004481	-0.002752	-0.004272			
50692	9483401	-9.850344	-0.085662	0.101257	-0.006035	-0.004661	-0.008316			
50693	9483426	-9.816712	-0.064061	0.088087	-0.005960	-0.000188	-0.001311			
50694	9483451	-9.837656	-0.070723	0.100665	-0.006236	-0.000006	-0.004376	-26.804230	88.751961	82.020981
50695	9483476	-9.828591	-0.077847	0.112623	-0.005655	-0.001989	-0.000800			
50696	9483501	-9.825314	-0.076492	0.118806	-0.003897	0.001334	-0.000019			
50697	9483526	-9.831929	-0.049270	0.132253	-0.002642	0.000130	-0.000739			
50698	9483551	-9.832578	-0.067091	0.116949	-0.010185	-0.004396	-0.001831	-26.772364	88.751335	82.054489
50699	9483576	-9.820247	-0.083995	0.085218	-0.002880	0.001612	0.000037			
50700	9483601	-9.845227	-0.038531	0.104007	-0.004156	0.001788	0.000177			
50701	9483626	-9.818320	-0.063104	0.114473	-0.003882	-0.003259	-0.002420			
50702	9483651	-9.830348	-0.047942	0.105391	-0.005718	0.001743	-0.008029	-26.798958	88.751808	82.027657
50703	9483676	-9.835970	-0.059451	0.114030	-0.005461	0.002606	0.001723			
50704	9483701	-9.812630	-0.067016	0.127857	-0.005259	0.001693	-0.004183			
50705	9483726	-9.839325	-0.063958	0.124170	-0.000755	-0.005141	-0.002755			
50706	9483751	-9.845469	-0.073799	0.139098	-0.003466	-0.002412	-0.003438	-26.801477	88.751648	82.024902
50707	9483776	-9.865986	-0.069247	0.133899	-0.005870	-0.001357	-0.005160			
50708	9483801	-9.864259	-0.056927	0.138156	-0.003789	0.000042	-0.003749			
50709	9483826	-9.841858	-0.064931	0.151981	-0.006653	-0.001049	-0.005601			
50710	9483851	-9.866363	-0.037815	0.130513	-0.008604	-0.001591	-0.002141	-26.850277	88.750870	81.977028
50711	9483876	-9.855506	-0.069507	0.134363	-0.007100	-0.006925	-0.000951			
50712	9483901	-9.836473	-0.061429	0.121198	-0.004123	0.002955	0.002679			
50713	9483926	-9.841713	-0.066018	0.130421	-0.005636	-0.002709	-0.005743			
50714	9483951	-9.846705	-0.072742	0.104057	-0.005181	0.001441	-0.001422	-26.828255	88.750717	81.999687
50715	9483976	-9.860717	-0.049430	0.088320	-0.003551	-0.003564	-0.000945			
50716	9484001	-9.823833	-0.082232	0.121709	-0.004575	-0.003783	-0.002676			
50717	9484026	-9.804869	-0.071922	0.113876	-0.003502	0.001147	-0.002016			
50718	9484051	-9.822731	-0.086792	0.107286	-0.007834	0.001967	-0.004111	-26.835640	88.750717	81.992432
50719	9484076	-9.834015	-0.067122	0.118840	-0.002049	-0.000507	-0.001705			
50720	9484101	-9.836273	-0.068804	0.103576	-0.009802	-0.003999	0.001699			
50721	9484126	-9.815119	-0.082253	0.097714	-0.008436	-0.003144	-0.003240			
50722	9484151	-9.855519	-0.048962	0.095016	0.000878	-0.005810	0.002050	-26.763964	88.750397	82.063713
50723	9484176	-9.851770	-0.055420	0.117084	-0.005218	-0.003533	0.000089			
50724	9484201	-9.842289	-0.077716	0.093494	-0.005071	-0.001909	0.002337			
50725	9484226	-9.830177	-0.060668	0.101551	-0.008586	-0.000174	-0.003162			
50726	9484251	-9.832190	-0.058483	0.115074	-0.000267	-0.006352	-0.000903	-26.700527	88.749458	82.127708
50727	9484276	-9.857100	-0.054335	0.130006	-0.002669	-0.001298	-0.003821			
50728	9484301	-9.845906	-0.065269	0.113636	-0.009693	0.000657	-0.000195			
50729	9484326	-9.841561	-0.036454	0.123199	-0.002351	-0.000840	-0.001191			
50730	9484351	-9.834764	-0.056086	0.141859	-0.006451	-0.002715	-0.000551	-26.684158	88.749771	82.144501
50731	9484376	-9.859097	-0.047214	0.130985	-0.006674	-0.001879	-0.000928			
50732	9484401	-9.854434	-0.036630	0.128130	-0.004797	-0.004297	0.002587			
50733	9484426	-9.824215	-0.041594	0.101097	-0.006634	-0.003242	-0.001708			
50734	9484451	-9.872943	-0.037173	0.117579	-0.006734	0.000584	0.004284	-26.595146	88.750084	82.234261
50735	9484476	-9.867639	-0.037985	0.106568	-0.004719	-0.001270	-0.003299			
50736	9484501	-9.848446	-0.050510	0.107934	0.000520	-0.002722	-0.000754			
50737	9484526	-9.825442	-0.057349	0.101085	-0.008042	-0.001790	-0.008042			
50738	9484551	-9.848642	-0.069967	0.104521	-0.005241	0.001246	-0.002262	-26.627804	88.748367	82.202888
50739	9484576	-9.849948	-0.040993	0.103058	-0.009428	0.002074	-0.003909			
50740	9484601	-9.841083	-0.072386	0.118956	-0.007629	-0.004283	0.000733			
50741	9484626	-9.805578	-0.092322	0.117764	-0.005996	-0.000894	0.002018			
50742	9484651	-9.837400	-0.062953	0.119342	-0.001094	-0.000304	-0.003822	-26.609617	88.748833	82.221306
50743	9484676	-9.851599	-0.069706	0.118433	-0.004065	0.000750	-0.001819			
50744	9484701	-9.840245	-0.064899	0.121737	-0.000881	0.003129	-0.001490			
50745	9484726	-9.842827	-0.059092	0.142324	-0.003701	0.003146	-0.004050			
50746	9484751	-9.827442	-0.061857	0.125976	-0.001644	0.003581	0.003195	-26.626234	88.750397	82.204643
50747	9484776	-9.858869	-0.049599	0.098906	-0.004978	-0.003082	-0.001706			
50748	9484801	-9.857546	-0.059168	0.134798	-0.004014	-0.003260	-0.004981			
50749	9484826	-9.841059	-0.047663	0.140960	-0.009491	-0.002262	-0.005794			
50750	9484851	-9.835301	-0.043556	0.128002	-0.010428	-0.002529	-0.000471	-26.632612	88.749146	82.199493
50751	9484876	-9.850645	-0.041076	0.139517	-0.006191	0.001165	-0.001939			
50752	9484901	-9.849178	-0.034661	0.117493	-0.013800	-0.001758	-0.007382			
50753	9484926	-9.829271	-0.035529	0.137054	-0.008352	-0.001453	0.000428			
50754	9484951	-9.865391	-0.034357	0.120462	-0.002788	-0.001496	-0.003627	-26.658632	88.749771	82.174309
50755	9484976	-9.857045	-0.062006	0.137205	-0.006093	-0.004196	-0.001839			
50756	9485001	-9.843137	-0.062987	0.124125	-0.004569	0.002950	0.003326			
50757	9485026	-9.817630	-0.080628	0.116841	-0.003031	0.000319	-0.000988			
50758	9485051	-9.844149	-0.057360	0.120814	-0.005382	-0.000314	-0.003682	-26.635216	88.750557	82.197746
50759	9485076	-9.882845	-0.039102	0.103701	-0.000919	0.004289	-0.005844			
50760	9485101	-9.859830	-0.069168	0.139075	-0.004482	0.001907	-0.002453			
50761	9485126	-9.830213	-0.056845	0.101061	-0.003558	0.002830	-0.001419			
50762	9485151	-9.833318	-0.072434	0.094402	-0.000083	0.000237	-0.002027	-26.692003	88.751961	82.139381
50763	9485176	-9.832525	-0.060587	0.096351	-0.003757	-0.002928	0.001299			
50764	9485201	-9.822798	-0.056300	0.132682	0.000215	0.000884	-0.001833			
50765	9485226	-9.807144	-0.077602	0.108178	-0.003499	0.000623	-0.004451			
50766	9485251	-9.846038	-0.062683	0.130902	-0.002697	-0.002123	0.001366	-26.663214	88.751961	82.167343
50767	9485276	-9.855021	-0.061667	0.116028	0.000370	0.002116	-0.002660			
50768	9485301	-9.834242	-0.059871	0.142831	-0.004342	-0.000538	0.000362			
50769	9485326	-9.836154	-0.051637	0.128015	-0.007027	-0.002792	0.000285			
50770	9485351	-9.848450	-0.049142	0.106919	-0.003561	-0.001711	-0.008115	-26.674774	88.752281	82.154900
50771	9485376	-9.888111	-0.022318	0.152213	-0.004500	-0.001979	-0.003622			
50772	9485401	-9.857557	-0.052787	0.125704	-0.006247	-0.003096	0.001247			
50773	9485426	-9.846270	-0.075247	0.115090	-0.004448	-0.001453	-0.000033			
50774	9485451	-9.836717	-0.077145	0.115893	-0.006619	0.004382	-0.003015	-26.662252	88.751648	82.169296
50775	9485476	-9.838284	-0.058802	0.101128	-0.009418	0.002016	-0.000703			
50776	9485501	-9.849858	-0.063753	0.133797	-0.008714	-0.001848	0.001834			
50777	9485526	-9.830011	-0.052670	0.137006	-0.005357	0.003181	-0.002506			
50778	9485551	-9.842656	-0.057162	0.109826	-0.003010	-0.002858	-0.004596	-26.661322	88.752434	82.171326
50779	9485576	-9.853621	-0.058340	0.114575	-0.001469	0.003502	-0.004312			
50780	9485601	-9.821842	-0.080573	0.103466	-0.002289	-0.001423	-0.006263			
50781	9485626	-9.810519	-0.076220	0.111560	-0.008875	-0.001210	-0.001240			
50782	9485651	-9.839069	-0.073110	0.101168	-0.002614	-0.001039	-0.002858	-26.708752	88.752434	82.122917
50783	9485676	-9.841024	-0.068867	0.102103	-0.007619	-0.000544	-0.004256			
50784	9485701	-9.808344	-0.080879	0.078443	-0.005275	0.000533	0.000486			
50785	9485726	-9.798698	-0.067998	0.109167	-0.002681	-0.005175	-0.003657			
50786	9485751	-9.858839	-0.053948	0.102279	-0.004105	-0.008629	-0.003596	-26.693790	88.751030	82.138283
50787	9485776	-9.875709	-0.034088	0.095532	-0.003842	0.001530	-0.002387			
50788	9485801	-9.841251	-0.056696	0.113648	-0.008410	-0.001721	-0.001371			
50789	9485826	-9.846304	-0.049186	0.144330	-0.004877	-0.002110	-0.002599			
50790	9485851	-9.846107	-0.083294	0.105984	-0.000560	0.000671	-0.005680	-26.721399	88.751175	82.110588
50791	9485876	-9.841399	-0.090618	0.129952	-0.002848	-0.003751	-0.002421			
50792	9485901	-9.828311	-0.072024	0.132242	-0.002240	-0.000645	-0.003502			
50793	9485926	-9.818667	-0.051735	0.149917	-0.000194	-0.000215	-0.000170			
50794	9485951	-9.862447	-0.047290	0.133386	-0.004861	-0.000621	-0.001369	-26.710024	88.751030	82.120712
50795	9485976	-9.834902	-0.069413	0.114095	-0.003116	-0.002912	0.000854			
50796	9486001	-9.831434	-0.049719	0.129351	-0.003217	0.000116	-0.003240			
50797	9486026	-9.850985	-0.043181	0.120871	-0.006388	-0.000714	-0.001046			
50798	9486051	-9.851520	-0.069084	0.105059	-0.007217	-0.001253	-0.005351	-26.709436	88.749931	82.122704
50799	9486076	-9.841649	-0.055544	0.097885	0.001389	-0.008334	-0.004062			
50800	9486101	-9.822623	-0.063717	0.119296	-0.003111	-0.003569	-0.004540			
50801	9486126	-9.841681	-0.063967	0.123180	-0.004187	0.000425	0.000101			
50802	9486151	-9.823440	-0.078071	0.126946	-0.008492	0.000668	-0.004047	-26.712376	88.749458	82.118507
50803	9486176	-9.868282	-0.068504	0.118498	-0.005817	0.001492	-0.002837			
50804	9486201	-9.800744	-0.071332	0.140239	-0.002554	0.001162	-0.002782			
50805	9486226	-9.816867	-0.059623	0.106317	-0.007580	-0.001515	-0.000927			
50806	9486251	-9.866338	-0.068854	0.114282	-0.005659	-0.003731	0.000349	-26.702879	88.749771	82.127815
50807	9486276	-9.847236	-0.076284	0.119870	-0.004680	-0.002162	0.001691			
50808	9486301	-9.835762	-0.074615	0.109742	-0.003585	0.001530	-0.002714			
50809	9486326	-9.820575	-0.068210	0.103912	-0.006755	-0.001627	-0.003754			
50810	9486351	-9.844708	-0.056078	0.131847	-0.003299	-0.001758	-0.004655	-26.708389	88.749771	82.122513
50811	9486376	-9.872776	-0.041163	0.096998	-0.007741	-0.000153	0.001270			
50812	9486401	-9.818083	-0.073214	0.098607	0.001794	0.002092	0.002596			
50813	9486426	-9.831285	-0.062032	0.131789	-0.003582	-0.000398	0.000231			
50814	9486451	-9.871948	-0.049840	0.135330	-0.007071	-0.001372	-0.000346	-26.647861	88.750557	82.183411
50815	9486476	-9.843105	-0.027443	0.122718	-0.003341	0.000052	-0.001952			
50816	9486501	-9.816809	-0.068702	0.113822	0.001717	0.006534	-0.000328			
50817	9486526	-9.803457	-0.076288	0.127805	-0.006188	0.001629	0.004478			
50818	9486551	-9.826332	-0.039220	0.131244	-0.006385	0.001161	-0.000148	-26.624922	88.752907	82.205688
50819	9486576	-9.874929	-0.038940	0.132427	-0.006169	0.002258	-0.005971			
50820	9486601	-9.839326	-0.058064	0.114052	-0.008789	0.000480	0.000948			
50821	9486626	-9.827524	-0.054828	0.125068	-0.003502	-0.000986	-0.001317			
50822	9486651	-9.848553	-0.045953	0.116979	-0.002284	-0.001162	-0.003757	-26.647406	88.753853	82.182983
50823	9486676	-9.843195	-0.048504	0.102610	-0.006421	-0.002009	-0.003238			
50824	9486701	-9.847652	-0.081077	0.119842	0.000905	0.001420	-0.001314			
50825	9486726	-9.848283	-0.069750	0.121330	-0.004373	-0.000234	-0.005795			
50826	9486751	-9.858746	-0.052755	0.084920	-0.001796	-0.000317	-0.004523	-26.692045	88.752907	82.138626
50827	9486776	-9.875006	-0.064344	0.118619	-0.005536	-0.001734	-0.003362			
50828	9486801	-9.838170	-0.076625	0.118893	-0.003667	-0.001952	0.000156			
50829	9486826	-9.832936	-0.065846	0.097258	-0.002410	0.000905	-0.001957			
50830	9486851	-9.851143	-0.065393	0.113266	-0.006334	-0.007050	-0.004801	-26.683393	88.752594	82.146095
50831	9486876	-9.869748	-0.024778	0.114700	-0.006399	-0.002322	0.001763			
50832	9486901	-9.825171	-0.049936	0.118810	0.001776	0.000003	-0.002423			
50833	9486926	-9.843509	-0.044886	0.148185	-0.006066	-0.002772	0.000928			
50834	9486951	-9.845346	-0.037395	0.121752	-0.002293	-0.000636	0.000796	-26.621044	88.752281	82.208885
50835	9486976	-9.833872	-0.080021	0.125120	-0.003466	-0.001889	0.000475			
50836	9487001	-9.846859	-0.076651	0.137089	-0.003608	0.001976	-0.007202			
50837	9487026	-9.832686	-0.062006	0.126538	-0.003578	-0.000402	-0.000158			
50838	9487051	-9.882895	-0.041625	0.116699	-0.009023	-0.002898	-0.006053	-26.648668	88.751961	82.181274
50839	9487076	-9.860718	-0.062752	0.117560	-0.006929	-0.002278	-0.004521			
50840	9487101	-9.799576	-0.076613	0.116275	-0.008743	0.000735	-0.001743			
50841	9487126	-9.793674	-0.059674	0.128237	-0.009389	-0.001156	-0.002716			
50842	9487151	-9.841180	-0.066324	0.120306	-0.006951	0.000694	-0.003864	-26.681765	88.752281	82.149445
50843	9487176	-9.853601	-0.082464	0.083968	-0.003266	-0.000137	0.001192			
50844	9487201	-9.839934	-0.081219	0.104980	-0.008129	-0.000226	0.001004			
50845	9487226	-9.827638	-0.079312	0.114049	-0.005959	-0.002062	0.000224			
50846	9487251	-9.827185	-0.087195	0.136534	-0.004658	0.001524	0.003254	-26.606754	88.753693	82.224861
50847	9487276	-9.839599	-0.071795	0.107853	-0.005609	-0.003351	-0.003120			
50848	9487301	-9.823895	-0.033190	0.110614	-0.001532	0.001694	0.000167			
50849	9487326	-9.868020	-0.046563	0.108522	-0.005400	-0.002192	-0.005737			
50850	9487351	-9.864843	-0.066696	0.098870	-0.006790	-0.000197	0.000364	-26.606050	88.753532	82.225754
50851	9487376	-9.824234	-0.052422	0.125000	-0.005117	0.001307	-0.004059			
50852	9487401	-9.808577	-0.079055	0.112500	-0.000654	-0.002035	-0.002228			
50853	9487426	-9.811573	-0.070595	0.118298	-0.003575	-0.002725	0.001045			
50854	9487451	-9.821230	-0.060341	0.118292	-0.008346	-0.001526	-0.001504	-26.592850	88.752907	82.239769
50855	9487476	-9.864261	-0.047586	0.119416	-0.008771	0.003900	-0.002232			
50856	9487501	-9.826337	-0.079657	0.136041	-0.007540	0.000945	-0.004056			
50857	9487526	-9.841526	-0.077752	0.124142	-0.005791	0.000526	-0.001048			
50858	9487551	-9.845382	-0.064762	0.104934	-0.004111	0.005779	-0.008011	-26.678480	88.754478	82.155540
50859	9487576	-9.861356	-0.053277	0.122844	-0.000791	-0.001903	-0.002028			
50860	9487601	-9.822440	-0.076409	0.116372	-0.005932	0.001174	-0.000018			
50861	9487626	-9.801650	-0.070278	0.130678	-0.004061	-0.001518	-0.002797			
50862	9487651	-9.827757	-0.073292	0.122178	-0.006776	0.001152	-0.002895	-26.682302	88.755104	82.150932
50863	9487676	-9.862786	-0.043053	0.103185	-0.005949	-0.002579	-0.001892			
50864	9487701	-9.851937	-0.043219	0.119443	-0.004333	-0.003462	-0.005749			
50865	9487726	-9.812832	-0.039555	0.103419	-0.003433	-0.001174	-0.000034			
50866	9487751	-9.860855	-0.054225	0.121369	-0.008419	0.000606	-0.003152	-26.688498	88.754478	82.145157
50867	9487776	-9.820485	-0.044171	0.118316	-0.004679	-0.002235	-0.001065			
50868	9487801	-9.830825	-0.089778	0.112621	-0.008236	-0.003396	-0.003113			
50869	9487826	-9.829293	-0.056966	0.106425	-0.007953	-0.004432	-0.004594			
50870	9487851	-9.848690	-0.071511	0.114629	-0.005767	-0.000183	-0.000791	-26.677032	88.753853	82.157684
50871	9487876	-9.825951	-0.059724	0.110629	-0.001867	0.000344	0.003879			
50872	9487901	-9.804155	-0.087466	0.107138	-0.003773	0.003660	-0.001492			
50873	9487926	-9.819704	-0.050740	0.081875	-0.000831	-0.002749	-0.003581			
50874	9487951	-9.844221	-0.075830	0.094438	-0.002895	0.000457	0.004333	-26.623177	88.755104	82.210190
50875	9487976	-9.867132	-0.052537	0.131954	-0.006579	-0.000584	-0.000215			
50876	9488001	-9.851109	-0.069670	0.115659	-0.004716	-0.007145	-0.000128			
50877	9488026	-9.839312	-0.064955	0.124640	-0.002629	-0.002725	-0.006199			
50878	9488051	-9.826343	-0.079688	0.136084	-0.004902	-0.001532	-0.005357	-26.619743	88.753693	82.213799
50879	9488076	-9.847011	-0.051014	0.110693	-0.004548	0.004043	-0.000130			
50880	9488101	-9.830689	-0.059780	0.107316	-0.005351	0.000796	-0.000787			
50881	9488126	-9.833078	-0.068685	0.125609	-0.008665	-0.004116	-0.003372			
50882	9488151	-9.860289	-0.065239	0.130005	-0.001046	0.000416	-0.001509	-26.619286	88.754791	82.214264
50883	9488176	-9.845354	-0.042849	0.134677	-0.002457	0.004593	-0.000905			
50884	9488201	-9.840536	-0.046557	0.133720	-0.005434	0.001566	-0.002323			
50885	9488226	-9.831359	-0.047643	0.114016	-0.004591	0.002736	-0.005078			
50886	9488251	-9.877062	-0.047633	0.109040	-0.005639	-0.002645	-0.004649	-26.675985	88.755577	82.157700
50887	9488276	-9.876728	-0.048446	0.134374	-0.003856	0.000170	-0.003296			
50888	9488301	-9.861185	-0.030630	0.128063	-0.005595	0.002532	-0.003020			
50889	9488326	-9.827221	-0.076988	0.120247	-0.003834	-0.000529	0.000414			
50890	9488351	-9.829462	-0.097281	0.139898	-0.003202	0.001667	0.000046	-26.683121	88.756363	82.150917
50891	9488376	-9.831249	-0.061005	0.122202	-0.006494	-0.001754	-0.004262			
50892	9488401	-9.825592	-0.066924	0.145695	-0.004028	-0.002345	0.001051			
50893	9488426	-9.871083	-0.030462	0.109409	-0.003830	0.001268	-0.003742			
50894	9488451	-9.847694	-0.039794	0.120808	-0.005826	-0.000311	-0.001693	-26.686991	88.755417	82.148636
50895	9488476	-9.839267	-0.066748	0.121773	-0.008614	-0.001074	0.000495			
50896	9488501	-9.834458	-0.066633	0.113522	-0.007541	0.003137	-0.003085			
50897	9488526	-9.835726	-0.039509	0.109247	-0.004980	0.001055	-0.002965			
50898	9488551	-9.838289	-0.060314	0.103985	-0.005105	0.000985	-0.003354	-26.714401	88.756989	82.121529
50899	9488576	-9.839699	-0.043833	0.146264	-0.003771	-0.006342	0.003210			
50900	9488601	-9.844114	-0.060187	0.122679	-0.003281	0.004318	-0.000134			
50901	9488626	-9.843856	-0.048988	0.134715	-0.005142	-0.001596	-0.000611			
50902	9488651	-9.859246	-0.067459	0.119448	-0.002320	0.002135	-0.001362	-26.663908	88.757942	82.171265
50903	9488676	-9.835337	-0.072336	0.114032	-0.003287	0.002050	-0.005275			
50904	9488701	-9.818560	-0.079182	0.110580	-0.002643	0.004062	-0.005908			
50905	9488726	-9.837257	-0.069890	0.110733	-0.004365	-0.000028	-0.001307			
50906	9488751	-9.848827	-0.062087	0.117990	-0.001934	-0.001797	-0.000556	-26.714300	88.758415	82.120514
50907	9488776	-9.850269	-0.057705	0.109816	-0.002106	-0.000504	-0.001508			
50908	9488801	-9.834146	-0.053293	0.113106	-0.002436	-0.002453	-0.002161			
50909	9488826	-9.839760	-0.064973	0.121274	-0.007537	0.000350	-0.009502			
50910	9488851	-9.842032	-0.060666	0.093957	-0.009058	0.000599	-0.002123	-26.759657	88.758255	82.075027
50911	9488876	-9.837693	-0.069750	0.104484	-0.005870	0.001305	0.000757			
50912	9488901	-9.829865	-0.067511	0.143248	-0.007235	0.001396	-0.005588			
50913	9488926	-9.854132	-0.063264	0.131437	-0.009753	-0.001867	-0.001046			
50914	9488951	-9.858626	-0.078331	0.118458	-0.006339	0.001876	0.000116	-26.765163	88.759193	82.071487
50915	9488976	-9.833717	-0.047008	0.108219	-0.009403	0.001630	0.001147			
50916	9489001	-9.806049	-0.051968	0.110580	-0.004002	0.000423	-0.003293			
50917	9489026	-9.824713	-0.082989	0.110590	-0.000638	0.003915	-0.000277			
50918	9489051	-9.841739	-0.081979	0.089659	-0.005154	0.000142	-0.004765	-26.787050	88.760460	82.049881
50919	9489076	-9.824181	-0.047394	0.107313	-0.005648	-0.000319	-0.004639			
50920	9489101	-9.821134	-0.077261	0.136508	-0.005916	-0.001809	-0.005551			
50921	9489126	-9.815730	-0.089969	0.136458	-0.001195	0.002933	-0.002715			
50922	9489151	-9.848690	-0.075417	0.122742	-0.002857	0.001031	-0.001372	-26.838156	88.760773	81.998375
50923	9489176	-9.844929	-0.063320	0.105424	-0.007363	0.003530	-0.005326			
50924	9489201	-9.835988	-0.034825	0.142363	-0.004634	-0.001851	-0.004205			
50925	9489226	-9.821391	-0.090312	0.128410	-0.010236	-0.004390	0.003555			
50926	9489251	-9.856260	-0.081242	0.126642	-0.000706	0.000241	0.003619	-26.806755	88.761566	82.029930
50927	9489276	-9.850700	-0.071744	0.133756	-0.002439	0.000338	0.004974			
50928	9489301	-9.830443	-0.049581	0.123186	-0.007007	-0.003241	0.001694			
50929	9489326	-9.834242	-0.088514	0.122181	-0.006568	0.001031	-0.001174			
50930	9489351	-9.847739	-0.080933	0.135738	-0.004371	-0.002237	-0.005358	-26.754398	88.762039	82.082611
50931	9489376	-9.871059	-0.074731	0.120457	-0.005428	0.001311	-0.001104			
50932	9489401	-9.842478	-0.067956	0.103545	-0.002286	0.000712	-0.005345			
50933	9489426	-9.841591	-0.066731	0.114082	-0.005981	0.002195	-0.004435			
50934	9489451	-9.837455	-0.058668	0.121224	-0.002302	0.001687	-0.002848	-26.814997	88.762360	82.022667
50935	9489476	-9.861763	-0.065857	0.138612	-0.006180	0.003044	-0.000387			
50936	9489501	-9.818572	-0.082609	0.118219	-0.005230	0.004858	-0.005384			
50937	9489526	-9.817479	-0.048164	0.103970	-0.007744	-0.004737	-0.000556			
50938	9489551	-9.836966	-0.055241	0.111189	-0.006357	-0.000140	-0.003292	-26.843235	88.763626	81.994919
50939	9489576	-9.832417	-0.080917	0.120255	-0.006883	0.000565	-0.004192			
50940	9489601	-9.822713	-0.088682	0.107274	-0.005488	0.000781	-0.004900			
50941	9489626	-9.838236	-0.064557	0.103062	-0.002854	-0.001226	-0.000426			
50942	9489651	-9.859620	-0.046870	0.137255	-0.003617	-0.005707	-0.003454	-26.864819	88.762985	81.973228
50943	9489676	-9.827380	-0.066656	0.126540	-0.004093	-0.006549	0.001027			
50944	9489701	-9.838681	-0.084146	0.138991	-0.002076	0.000262	-0.005162			
50945	9489726	-9.852415	-0.035811	0.106996	-0.008510	-0.002424	0.000809			
50946	9489751	-9.859353	-0.064810	0.130967	-0.007103	-0.000666	-0.004578	-26.845482	88.761879	81.993446
50947	9489776	-9.857069	-0.047341	0.110357	-0.006071	-0.002903	-0.001766			
50948	9489801	-9.821308	-0.062969	0.137003	-0.002816	-0.000328	-0.000292			
50949	9489826	-9.842104	-0.065266	0.114588	-0.008816	-0.001207	-0.001302			
50950	9489851	-9.828756	-0.071538	0.122691	-0.008932	-0.001803	-0.005986	-26.843472	88.761726	81.996361
50951	9489876	-9.851336	-0.051646	0.096042	0.000025	-0.001244	-0.000672			
50952	9489901	-9.854788	-0.049073	0.109914	-0.003457	-0.000145	-0.000219			
50953	9489926	-9.820210	-0.076827	0.118831	-0.006875	0.002247	-0.004619			
50954	9489951	-9.853763	-0.026137	0.129089	-0.009044	0.002016	-0.003774	-26.869162	88.761879	81.971794
50955	9489976	-9.829494	-0.059462	0.122300	-0.002298	-0.003043	-0.006068			
50956	9490001	-9.816302	-0.050256	0.127905	-0.009228	0.002414	0.000712			
50957	9490026	-9.824503	-0.077354	0.120364	-0.004575	-0.001654	-0.002335			
50958	9490051	-9.848631	-0.054446	0.125255	-0.007123	-0.001816	-0.000277	-26.866243	88.762039	81.975220
50959	9490076	-9.845316	-0.049564	0.121922	-0.002632	-0.001733	0.003050			
50960	9490101	-9.833783	-0.047709	0.099250	-0.006628	0.002772	-0.003140			
50961	9490126	-9.849916	-0.060467	0.113327	-0.006001	-0.003228	-0.002275			
50962	9490151	-9.861766	-0.065875	0.116740	-0.004913	-0.005274	-0.003314	-26.839226	88.762039	82.001740
50963	9490176	-9.855364	-0.045460	0.117152	-0.004032	-0.002874	-0.005743			
50964	9490201	-9.860511	-0.056498	0.125222	-0.004463	0.005335	-0.002296			
50965	9490226	-9.824586	-0.069269	0.118396	-0.007246	0.001986	-0.002182			
50966	9490251	-9.807801	-0.072111	0.105388	-0.008038	-0.001313	0.001261	-26.864300	88.762360	81.978394
50967	9490276	-9.830963	-0.053637	0.116508	-0.005460	0.000274	-0.002071			
50968	9490301	-9.843467	-0.048731	0.126211	-0.003983	-0.003834	-0.000361			
50969	9490326	-9.847492	-0.069659	0.125664	-0.002444	0.001939	-0.003800			
50970	9490351	-9.826385	-0.074392	0.112652	-0.006880	0.002640	-0.002563	-26.880342	88.762985	81.962265
50971	9490376	-9.870951	-0.088594	0.108157	-0.005116	-0.004558	0.001822			
50972	9490401	-9.857350	-0.044181	0.128189	-0.005975	-0.001866	-0.002651			
50973	9490426	-9.835541	-0.043190	0.144335	-0.006691	-0.001101	0.000556			
50974	9490451	-9.852369	-0.055824	0.118975	-0.004940	0.004162	-0.000121	-26.835238	88.764091	82.007553
50975	9490476	-9.848991	-0.070379	0.138724	-0.004748	-0.004633	-0.005174			
50976	9490501	-9.860831	-0.060996	0.108540	-0.000875	-0.001197	-0.002019			
50977	9490526	-9.821099	-0.082554	0.120281	-0.002047	0.003427	-0.005849			
50978	9490551	-9.826654	-0.048165	0.103565	-0.006784	-0.000592	-0.002773	-26.880854	88.763939	81.961151
50979	9490576	-9.857125	-0.044139	0.092156	-0.007488	0.003530	-0.004354			
50980	9490601	-9.830642	-0.070389	0.099268	-0.004111	-0.001827	0.002404			
50981	9490626	-9.814459	-0.063413	0.085222	-0.009403	0.003371	-0.002559			
50982	9490651	-9.811449	-0.088422	0.112597	-0.005874	-0.000958	-0.002526	-26.897406	88.764572	81.946144
50983	9490676	-9.822255	-0.072307	0.133252	-0.003833	0.001204	-0.002646			
50984	9490701	-9.845051	-0.072506	0.122399	-0.003763	-0.003457	-0.007351			
50985	9490726	-9.836994	-0.066043	0.116095	-0.005332	-0.004055	-0.002412			
50986	9490751	-9.827894	-0.059363	0.094006	-0.007282	-0.000654	0.001401	-26.903109	88.763939	81.940742
50987	9490776	-9.857077	-0.068973	0.134872	-0.006622	0.000250	-0.002256			
50988	9490801	-9.862190	-0.062783	0.101796	-0.004433	0.002494	-0.000516			
50989	9490826	-9.846078	-0.059369	0.109003	-0.007813	-0.004092	0.001892			
50990	9490851	-9.854515	-0.047100	0.139122	-0.008425	0.003397	0.000845	-26.873119	88.764732	81.972984
50991	9490876	-9.832841	-0.060468	0.125626	-0.002615	-0.000642	-0.002599			
50992	9490901	-9.842253	-0.054389	0.094534	-0.005922	-0.001283	-0.001627			
50993	9490926	-9.827243	-0.045519	0.114130	-0.006965	-0.002922	-0.003041			
50994	9490951	-9.842801	-0.051677	0.100273	-0.001113	0.002158	-0.004824	-26.897596	88.764412	81.948418
50995	9490976	-9.840316	-0.066562	0.115630	-0.003764	0.001079	-0.002190			
50996	9491001	-9.855006	-0.056240	0.082650	-0.008313	-0.004746	0.000672			
50997	9491026	-9.824528	-0.078419	0.127015	-0.001387	0.002989	-0.003031			
50998	9491051	-9.840697	-0.070659	0.107446	-0.001182	0.000872	0.000104	-26.884804	88.765846	81.959625
50999	9491076	-9.843723	-0.055002	0.103728	-0.004511	-0.005522	0.000080			
51000	9491101	-9.844070	-0.035869	0.122334	-0.007379	-0.001763	-0.000601			
51001	9491126	-9.828837	-0.069230	0.112180	-0.001960	0.002721	-0.003603			
51002	9491151	-9.833032	-0.076319	0.111745	-0.003195	-0.000454	0.000229	-26.854343	88.765999	81.990128
51003	9491176	-9.838976	-0.060897	0.118440	-0.005297	0.003117	-0.002053			
51004	9491201	-9.859204	-0.038747	0.109976	-0.005025	-0.001469	-0.003229			
51005	9491226	-9.802908	-0.093805	0.129321	-0.001830	0.000857	-0.001179			
51006	9491251	-9.847643	-0.049466	0.109836	-0.004984	0.003514	-0.002369	-26.885128	88.766792	81.959541
51007	9491276	-9.853244	-0.101348	0.118570	-0.007837	0.000687	0.000961			
51008	9491301	-9.842038	-0.081762	0.115134	-0.003844	0.001593	-0.003214			
51009	9491326	-9.817213	-0.044760	0.108270	-0.001574	0.001058	0.000618			
51010	9491351	-9.810096	-0.073951	0.095827	-0.008394	-0.000104	-0.001356	-26.875563	88.767906	81.969704
51011	9491376	-9.868227	-0.039738	0.106683	-0.006518	-0.003044	-0.004515			
51012	9491401	-9.846574	-0.066293	0.124269	-0.007254	-0.001694	-0.000922			
51013	9491426	-9.854293	-0.066660	0.141564	-0.006168	0.000064	-0.004438			
51014	9491451	-9.854185	-0.073734	0.140603	-0.006425	0.000390	-0.001486	-26.892454	88.767426	81.954140
51015	9491476	-9.842003	-0.046644	0.117021	-0.005363	0.001444	0.001848			
51016	9491501	-9.854695	-0.048408	0.091305	-0.004961	-0.004256	-0.010490			
51017	9491526	-9.829015	-0.055447	0.112204	-0.006920	-0.000204	-0.001487			
51018	9491551	-9.832208	-0.062064	0.105016	-0.002117	0.001490	-0.005469	-26.941868	88.767426	81.904755
51019	9491576	-9.881985	-0.050500	0.120628	-0.003000	-0.000519	-0.001305			
51020	9491601	-9.854571	-0.072499	0.122435	-0.002657	-0.003225	0.000927			
51021	9491626	-9.824107	-0.036156	0.128958	-0.007482	-0.002345	0.001322			
51022	9491651	-9.835625	-0.029679	0.129504	-0.002418	-0.000770	-0.000282	-26.878431	88.767738	81.967438
51023	9491676	-9.828088	-0.053183	0.113245	-0.007710	-0.006437	-0.010239			
51024	9491701	-9.853846	-0.055471	0.124783	-0.004093	-0.000536	-0.001051			
51025	9491726	-9.835566	-0.062586	0.108419	-0.004420	-0.002357	-0.001699			
51026	9491751	-9.852516	-0.084822	0.121457	-0.005291	-0.001277	-0.003035	-26.903893	88.765678	81.943367
51027	9491776	-9.844070	-0.067389	0.108463	-0.006902	-0.000326	0.001527			
51028	9491801	-9.840862	-0.053046	0.099822	-0.005522	-0.003994	-0.002281			
51029	9491826	-9.804384	-0.076837	0.101054	-0.002603	0.000444	-0.005856			
51030	9491851	-9.862500	-0.045013	0.116206	-0.005762	-0.000314	-0.002326	-26.905472	88.765999	81.941933
51031	9491876	-9.863758	-0.069461	0.137807	-0.009477	-0.002044	0.002871			
51032	9491901	-9.866645	-0.058363	0.122396	-0.003254	0.003946	0.003977			
51033	9491926	-9.811358	-0.057568	0.111654	-0.004143	-0.003061	-0.001000			
51034	9491951	-9.838152	-0.043602	0.105518	-0.008719	0.002156	-0.000185	-26.837299	88.766792	82.011864
51035	9491976	-9.856844	-0.042670	0.120488	-0.006959	-0.001110	-0.003484			
51036	9492001	-9.848833	-0.031004	0.111317	-0.002582	0.000259	-0.003745			
51037	9492026	-9.855919	-0.052024	0.144491	-0.007544	-0.002611	-0.001626			
51038	9492051	-9.864302	-0.057508	0.126219	0.000033	0.002894	-0.000075	-26.850290	88.767426	81.998268
51039	9492076	-9.859543	-0.046185	0.101887	-0.001466	-0.005020	-0.003259			
51040	9492101	-9.832184	-0.044040	0.142890	-0.001027	-0.002165	0.001563			
51041	9492126	-9.820336	-0.070299	0.126603	-0.007378	-0.002350	-0.003357			
51042	9492151	-9.835643	-0.060873	0.117523	-0.005648	-0.000317	-0.004502	-26.837448	88.766632	82.010689
51043	9492176	-9.842521	-0.078331	0.110388	-0.002950	-0.002199	0.000349			
51044	9492201	-9.821033	-0.049813	0.120321	-0.006180	-0.001359	-0.002909			
51045	9492226	-9.820520	-0.086673	0.112164	-0.008312	-0.000814	-0.001684			
51046	9492251	-9.865511	-0.035664	0.122940	-0.007673	-0.000472	-0.001229	-26.818432	88.766159	82.031250
51047	9492276	-9.829261	-0.065692	0.097773	-0.005308	0.003441	-0.003396			
51048	9492301	-9.809959	-0.052710	0.108742	-0.006351	0.000463	0.002682			
51049	9492326	-9.829746	-0.068109	0.103150	-0.007127	-0.003631	0.000608			
51050	9492351	-9.843681	-0.061296	0.108973	-0.005403	-0.005995	-0.003766	-26.786570	88.766312	82.064018
51051	9492376	-9.849423	-0.054079	0.098441	-0.004561	-0.002104	-0.003107			
51052	9492401	-9.814350	-0.082233	0.108281	-0.007538	0.001012	-0.003663			
51053	9492426	-9.840708	-0.079029	0.126703	-0.003059	-0.002976	-0.000422			
51054	9492451	-9.842190	-0.064551	0.104677	-0.001603	-0.006773	-0.004806	-26.785788	88.765518	82.064110
51055	9492476	-9.855074	-0.071625	0.124281	-0.002028	0.000983	-0.002782			
51056	9492501	-9.823297	-0.063776	0.130397	-0.005953	-0.000776	-0.005472			
51057	9492526	-9.831630	-0.074509	0.113206	-0.003575	-0.001188	-0.005411			
51058	9492551	-9.850264	-0.068459	0.111374	-0.004992	-0.002554	-0.000803	-26.822918	88.764885	82.027046
51059	9492576	-9.843266	-0.070252	0.137710	-0.003354	0.000244	-0.002198			
51060	9492601	-9.830266	-0.077089	0.128531	-0.009567	-0.001740	-0.003606			
51061	9492626	-9.815884	-0.073177	0.103972	-0.012916	-0.000954	-0.002059			
51062	9492651	-9.864669	-0.063581	0.119655	-0.009251	-0.003150	0.000815	-26.811960	88.764572	82.040581
51063	9492676	-9.856218	-0.052530	0.119041	-0.007322	0.000507	0.000568			
51064	9492701	-9.853630	-0.070538	0.119091	-0.008471	-0.003974	-0.001436			
51065	9492726	-9.817487	-0.064322	0.116478	-0.010021	-0.000963	0.002941			
51066	9492751	-9.869659	-0.037320	0.102341	-0.009127	-0.001217	-0.002384	-26.760347	88.764572	82.095474
51067	9492776	-9.860736	-0.073987	0.119560	-0.001562	-0.001663	-0.002405			
51068	9492801	-9.818576	-0.088501	0.108800	-0.000626	0.000811	-0.004834			
51069	9492826	-9.820801	-0.072648	0.128476	-0.004889	-0.001909	-0.002210			
51070	9492851	-9.865956	-0.037007	0.119632	-0.005351	-0.003146	0.000355	-26.757664	88.764572	82.096626
51071	9492876	-9.841047	-0.054520	0.131957	-0.004740	-0.002629	-0.003558			
51072	9492901	-9.825091	-0.068341	0.121308	-0.003521	-0.002471	-0.003049			
51073	9492926	-9.824085	-0.067712	0.111692	-0.005221	-0.001206	0.000484			
51074	9492951	-9.851628	-0.035235	0.109924	-0.000857	-0.001517	0.002082	-26.719305	88.764259	82.134338
51075	9492976	-9.831208	-0.070224	0.113627	-0.007263	0.000563	-0.002964			
51076	9493001	-9.812019	-0.079913	0.110194	-0.002098	0.000848	-0.004639			
51077	9493026	-9.844594	-0.040364	0.137709	-0.004154	-0.002609	-0.001127			
51078	9493051	-9.853463	-0.059595	0.147820	-0.003779	-0.002474	-0.002468	-26.735704	88.763626	82.118256
51079	9493076	-9.842913	-0.063687	0.143448	-0.000393	-0.004025	-0.000438			
51080	9493101	-9.833084	-0.046367	0.137705	-0.007696	-0.006354	-0.002354			
51081	9493126	-9.822434	-0.054611	0.127030	-0.004993	-0.000034	0.001456			
51082	9493151	-9.851801	-0.053113	0.096484	-0.003894	0.001340	-0.000910	-26.683838	88.763306	82.170334
51083	9493176	-9.858727	-0.048547	0.130556	-0.003174	0.000565	-0.005466			
51084	9493201	-9.836523	-0.055727	0.094062	-0.008303	-0.003198	-0.000988			
51085	9493226	-9.843701	-0.047156	0.083039	-0.006080	-0.000648	-0.005148			
51086	9493251	-9.836215	-0.047372	0.106491	-0.001739	-0.000045	-0.001110	-26.709997	88.762833	82.144333
51087	9493276	-9.858286	-0.045145	0.129111	-0.008382	-0.000355	0.000566			
51088	9493301	-9.843276	-0.024085	0.122862	-0.003643	-0.003132	-0.008370			
51089	9493326	-9.812628	-0.069918	0.111211	-0.003096	-0.003946	-0.002484			
51090	9493351	-9.839124	-0.044132	0.109835	0.000347	-0.001042	-0.000036	-26.707291	88.762360	82.146439
51091	9493376	-9.811811	-0.064463	0.124080	0.000180	0.001658	-0.005606			
51092	9493401	-9.814198	-0.058182	0.112094	-0.004415	0.003320	-0.004877			
51093	9493426	-9.827755	-0.075221	0.103130	-0.002134	-0.003999	-0.003126			
51094	9493451	-9.876555	-0.069988	0.130238	-0.004920	-0.004221	0.004901	-26.709621	88.762360	82.143051
51095	9493476	-9.876431	-0.038636	0.122964	0.001015	0.000004	-0.002205			
51096	9493501	-9.812891	-0.061300	0.136575	-0.002243	-0.000381	-0.002274			
51097	9493526	-9.831673	-0.065254	0.102194	-0.006095	-0.002059	0.000362			
51098	9493551	-9.853363	-0.078665	0.092619	-0.010666	0.003093	0.001103	-26.690111	88.763939	82.161575
51099	9493576	-9.830511	-0.059594	0.132349	-0.003858	-0.000156	-0.002649			
51100	9493601	-9.838385	-0.036796	0.126149	-0.007194	-0.001565	-0.001688			
51101	9493626	-9.837277	-0.057946	0.146239	-0.005433	0.003639	-0.001536			
51102	9493651	-9.849137	-0.081716	0.108494	-0.006318	-0.001094	-0.001304	-26.697325	88.764572	82.154869
51103	9493676	-9.871314	-0.060194	0.108624	-0.002341	-0.003159	0.000539			
51104	9493701	-9.834921	-0.048211	0.130872	-0.001891	0.000788	-0.003488			
51105	9493726	-9.842317	-0.066866	0.130961	-0.002335	0.000322	-0.005604			
51106	9493751	-9.840268	-0.072290	0.119450	-0.002114	-0.000113	0.000677	-26.698196	88.765205	82.152367
51107	9493776	-9.853117	-0.053542	0.156927	-0.004280	-0.002670	-0.000608			
51108	9493801	-9.817129	-0.057771	0.121730	-0.005712	0.000215	0.000243			
51109	9493826	-9.847254	-0.053120	0.131488	-0.005144	0.000213	-0.002126			
51110	9493851	-9.859352	-0.066266	0.110955	0.000553	-0.003885	-0.003067	-26.674458	88.763939	82.177422
51111	9493876	-9.844769	-0.050373	0.108895	-0.005808	0.001043	-0.000460			
51112	9493901	-9.826045	-0.035249	0.131879	-0.003004	-0.004521	0.001045			
51113	9493926	-9.832786	-0.066207	0.129993	-0.006120	-0.003485	-0.003238			
51114	9493951	-9.868632	-0.060604	0.138331	-0.004813	-0.004171	-0.002025	-26.630230	88.763145	82.221657
51115	9493976	-9.860516	-0.054108	0.122473	-0.007457	-0.001377	-0.001293			
51116	9494001	-9.860897	-0.058744	0.116177	-0.002716	0.000647	-0.001812			
51117	9494026	-9.838939	-0.059357	0.107902	-0.007935	0.003125	-0.008520			
51118	9494051	-9.850139	-0.078927	0.110412	-0.002454	0.000201	-0.001621	-26.677401	88.764259	82.174080
51119	9494076	-9.840896	-0.059958	0.118922	-0.003505	0.003411	-0.001478			
51120	9494101	-9.806937	-0.073398	0.122106	-0.004189	0.004360	-0.005835			
51121	9494126	-9.861255	-0.065756	0.111366	-0.006033	0.002339	0.000769			
51122	9494151	-9.865098	-0.064973	0.112864	-0.005163	-0.001603	-0.007333	-26.746380	88.765205	82.105576
51123	9494176	-9.855801	-0.043390	0.107048	-0.001347	-0.000177	-0.003299			
51124	9494201	-9.828959	-0.061740	0.116481	-0.003526	0.001594	-0.005339			
51125	9494226	-9.837561	-0.057040	0.112706	-0.010124	-0.000267	-0.005652			
51126	9494251	-9.852640	-0.073408	0.119582	-0.002819	-0.002588	-0.003049	-26.807543	88.764259	82.045288
51127	9494276	-9.875655	-0.058922	0.114373	-0.005423	-0.001150	-0.003678			
51128	9494301	-9.848064	-0.058600	0.120913	-0.005512	0.002417	0.003336			
51129	9494326	-9.842753	-0.064801	0.120930	-0.005536	-0.001670	-0.004004			
51130	9494351	-9.849106	-0.091362	0.122865	-0.000803	-0.003250	0.003156	-26.764538	88.764885	82.088013
51131	9494376	-9.850126	-0.073495	0.097952	-0.001748	-0.001599	0.000413			
51132	9494401	-9.840280	-0.076746	0.130461	-0.003198	0.001475	-0.001363			
51133	9494426	-9.834373	-0.048962	0.118006	-0.003105	-0.001758	-0.004455			
51134	9494451	-9.835510	-0.065857	0.104620	-0.008847	-0.004247	-0.003041	-26.757608	88.764732	82.094177
51135	9494476	-9.833598	-0.059006	0.092065	-0.001991	0.001693	-0.003991			
51136	9494501	-9.811276	-0.070628	0.125540	-0.005668	-0.001280	-0.000989			
51137	9494526	-9.827523	-0.053324	0.098325	-0.001320	-0.003470	-0.003700			
51138	9494551	-9.814692	-0.090192	0.100173	-0.007777	-0.001580	-0.002262	-26.769526	88.764572	82.082268
51139	9494576	-9.842896	-0.050926	0.117020	-0.001505	0.000802	-0.001177			
51140	9494601	-9.845770	-0.045124	0.106549	-0.000522	-0.000224	-0.002080			
51141	9494626	-9.821928	-0.091540	0.119843	-0.002323	0.000137	-0.000671			
51142	9494651	-9.839909	-0.066255	0.125661	-0.002548	0.001095	-0.004511	-26.784657	88.765053	82.065865
51143	9494676	-9.838402	-0.058166	0.097930	-0.004295	-0.001965	0.001575			
51144	9494701	-9.827966	-0.062537	0.113131	-0.005321	0.002092	-0.001161			
51145	9494726	-9.825164	-0.066567	0.132319	-0.006868	0.000580	0.001276			
51146	9494751	-9.859681	-0.077047	0.109995	-0.004627	-0.003445	0.004071	-26.703842	88.765999	82.147179
51147	9494776	-9.866911	-0.039034	0.123895	-0.008121	-0.000809	-0.003219			
51148	9494801	-9.832640	-0.074144	0.122722	-0.004672	0.003780	0.000703			
51149	9494826	-9.815579	-0.078122	0.144666	-0.002953	0.003865	-0.004242			
51150	9494851	-9.839463	-0.078496	0.155432	-0.004163	-0.000085	0.000431	-26.722675	88.767586	82.128510
51151	9494876	-9.844689	-0.057124	0.110393	-0.004373	-0.000496	-0.008610			
51152	9494901	-9.820491	-0.064766	0.141377	-0.001861	-0.000304	-0.000925			
51153	9494926	-9.848470	-0.067241	0.125772	-0.006738	-0.002006	0.000043			
51154	9494951	-9.857438	-0.040076	0.135407	-0.008355	-0.003532	-0.003424	-26.742531	88.766312	82.109741
51155	9494976	-9.833249	-0.064755	0.124221	-0.004208	-0.003396	-0.006518			
51156	9495001	-9.840977	-0.079980	0.094558	-0.005475	-0.001533	-0.002460			
51157	9495026	-9.863393	-0.050250	0.117674	-0.003898	-0.002538	0.000416			
51158	9495051	-9.880484	-0.054245	0.115842	-0.005569	-0.002439	-0.001566	-26.734947	88.765205	82.118179
51159	9495076	-9.857796	-0.038773	0.113346	0.000376	-0.004408	-0.003645			
51160	9495101	-9.819428	-0.062025	0.117485	-0.003825	-0.003120	-0.002412			
51161	9495126	-9.805266	-0.095695	0.128882	-0.010541	-0.003235	-0.000086			
51162	9495151	-9.839850	-0.066518	0.117552	-0.004546	-0.001957	0.004202	-26.669504	88.764885	82.183022
51163	9495176	-9.850222	-0.078184	0.123324	-0.006206	0.001557	-0.002377			
51164	9495201	-9.810122	-0.081838	0.114553	-0.004725	-0.003143	-0.004846			
51165	9495226	-9.820342	-0.062472	0.111218	-0.005306	-0.000829	-0.004323			
51166	9495251	-9.835750	-0.046870	0.106474	-0.001104	-0.001778	-0.000356	-26.688602	88.764572	82.163506
51167	9495276	-9.848017	-0.060009	0.115654	-0.002240	0.001559	-0.002131			
51168	9495301	-9.841782	-0.034553	0.135238	-0.004728	-0.000285	0.003441			
51169	9495326	-9.828870	-0.066828	0.115158	-0.001846	-0.004433	0.003222			
51170	9495351	-9.858161	-0.045325	0.107560	-0.002022	0.000584	-0.004379	-26.640539	88.765053	82.210838
51171	9495376	-9.855692	-0.053382	0.109523	-0.003624	-0.005575	-0.004087			
51172	9495401	-9.847468	-0.070091	0.124766	-0.000060	-0.000533	-0.000800			
51173	9495426	-9.839375	-0.068053	0.119866	-0.005241	0.003311	-0.004171			
51174	9495451	-9.856833	-0.041642	0.118586	-0.005761	-0.000377	-0.002448	-26.659878	88.765205	82.190514
51175	9495476	-9.854587	-0.041984	0.140549	-0.003307	0.003088	-0.003022			
51176	9495501	-9.819067	-0.051103	0.113644	-0.005603	-0.001803	-0.004964			
51177	9495526	-9.807466	-0.073548	0.131275	-0.009345	-0.000642	-0.004826			
51178	9495551	-9.870535	-0.057693	0.131553	-0.004570	0.000484	-0.001942	-26.712124	88.765518	82.139000
51179	9495576	-9.842317	-0.053050	0.102724	-0.005914	-0.003736	-0.000484			
51180	9495601	-9.816206	-0.086102	0.106816	-0.006659	0.003411	-0.004423			
51181	9495626	-9.827590	-0.055924	0.113645	0.000170	-0.001827	-0.002542			
51182	9495651	-9.836359	-0.070455	0.100754	-0.004861	0.000042	0.005051	-26.681488	88.766159	82.169365
51183	9495676	-9.851206	-0.070918	0.112807	-0.003198	-0.000723	-0.002654			
51184	9495701	-9.821171	-0.074374	0.116005	-0.003777	-0.000148	0.000553			
51185	9495726	-9.825361	-0.075276	0.103045	-0.005761	0.003098	-0.008720			
51186	9495751	-9.840923	-0.053166	0.110808	-0.008251	0.001518	-0.001794	-26.728939	88.766632	82.122444
51187	9495776	-9.840749	-0.074267	0.123290	-0.004792	-0.002623	-0.001639			
51188	9495801	-9.830944	-0.057021	0.120921	-0.002509	-0.004199	-0.000817			
51189	9495826	-9.839162	-0.079287	0.108929	-0.008889	-0.003023	-0.004767			
51190	9495851	-9.832597	-0.074980	0.115135	-0.003006	-0.002334	-0.000358	-26.699522	88.765205	82.152725
51191	9495876	-9.838502	-0.071129	0.140102	0.001290	-0.004643	0.001545			
51192	9495901	-9.832090	-0.074353	0.109324	-0.005186	-0.000164	0.000685			
51193	9495926	-9.848684	-0.046749	0.118534	-0.006814	0.000510	-0.000453			
51194	9495951	-9.849906	-0.064886	0.121425	-0.007002	-0.001696	-0.002585	-26.647642	88.765518	82.204208
51195	9495976	-9.853189	-0.071179	0.127712	-0.006852	-0.002599	-0.004002			
51196	9496001	-9.819710	-0.078162	0.116505	-0.003421	-0.001563	-0.001253			
51197	9496026	-9.812401	-0.056845	0.124170	-0.001058	-0.005659	-0.002177			
51198	9496051	-9.834522	-0.074032	0.117079	-0.005434	-0.004299	0.004064	-26.586161	88.764885	82.264984
51199	9496076	-9.843201	-0.056366	0.098848	-0.004816	0.000225	-0.001299			
51200	9496101	-9.839493	-0.083283	0.092557	-0.007038	0.003475	-0.003967			
51201	9496126	-9.829241	-0.074908	0.112196	-0.010195	0.000057	-0.001930			
51202	9496151	-9.828835	-0.061865	0.095917	-0.004670	-0.000818	-0.004382	-26.626139	88.765678	82.226295
51203	9496176	-9.826570	-0.083951	0.083912	-0.006446	0.000639	-0.003985			
51204	9496201	-9.836014	-0.073782	0.125608	-0.007837	0.002491	-0.003207			
51205	9496226	-9.823982	-0.076794	0.112660	-0.006029	-0.000589	-0.007202			
51206	9496251	-9.834253	-0.065261	0.132393	-0.006746	-0.001943	-0.001368	-26.684895	88.765205	82.169716
51207	9496276	-9.839499	-0.054587	0.113234	-0.009097	-0.002110	0.001267			
51208	9496301	-9.819418	-0.057141	0.105901	-0.005753	0.001365	-0.001808			
51209	9496326	-9.841662	-0.076602	0.122851	-0.007077	-0.001039	0.001141			
51210	9496351	-9.850865	-0.064425	0.122395	-0.002806	-0.000848	-0.003043	-26.653389	88.765518	82.202248
51211	9496376	-9.833537	-0.074555	0.113641	-0.007431	0.001459	-0.006036			
51212	9496401	-9.834206	-0.069132	0.132347	-0.003153	0.000185	-0.002721			
51213	9496426	-9.829676	-0.053988	0.139998	-0.003600	0.000043	-0.003743			
51214	9496451	-9.863144	-0.045420	0.142574	-0.003701	-0.000727	-0.001693	-26.701334	88.766159	82.153748
51215	9496476	-9.838414	-0.070938	0.124731	-0.003836	-0.000860	-0.002009			
51216	9496501	-9.834812	-0.051828	0.118983	-0.005668	-0.003415	-0.001445			
51217	9496526	-9.830568	-0.059774	0.143328	-0.008558	0.000794	-0.005780			
51218	9496551	-9.842724	-0.051485	0.088283	-0.004478	0.001322	-0.004756	-26.740730	88.765999	82.115013
51219	9496576	-9.841603	-0.067118	0.093555	-0.006440	-0.001223	-0.000791			
51220	9496601	-9.870505	-0.057679	0.127790	-0.002779	-0.001620	-0.002846			
51221	9496626	-9.831434	-0.058093	0.125113	-0.000705	0.001587	-0.004444			
51222	9496651	-9.823293	-0.046536	0.093034	-0.003862	-0.001833	-0.002274	-26.752417	88.765205	82.103760
51223	9496676	-9.822214	-0.067254	0.114588	-0.004879	-0.001915	0.000225			
51224	9496701	-9.843172	-0.028649	0.117016	-0.002716	0.002646	-0.002514			
51225	9496726	-9.846209	-0.022263	0.131489	-0.000684	-0.003195	-0.001973			
51226	9496751	-9.820157	-0.068872	0.095328	-0.002670	0.003031	-0.002837	-26.756973	88.765846	82.098083
51227	9496776	-9.834187	-0.066174	0.123750	0.002457	0.000538	-0.005169			
51228	9496801	-9.846870	-0.040587	0.120965	-0.003429	-0.003301	-0.000550			
51229	9496826	-9.853840	-0.046180	0.104170	-0.004996	-0.000237	-0.001559			
51230	9496851	-9.837374	-0.068767	0.106060	-0.006402	-0.002913	-0.004837	-26.771067	88.765518	82.083084
51231	9496876	-9.850443	-0.052797	0.106561	-0.002146	-0.001217	-0.000416			
51232	9496901	-9.854436	-0.043056	0.116660	-0.003439	-0.001314	-0.006378			
51233	9496926	-9.851998	-0.057083	0.135792	-0.005513	-0.000311	-0.005218			
51234	9496951	-9.868743	-0.031438	0.096539	-0.003134	0.004202	0.001864	-26.795544	88.765999	82.058228
51235	9496976	-9.849358	-0.070556	0.121435	-0.006939	-0.001369	-0.000468			
51236	9497001	-9.850561	-0.051155	0.123335	-0.005627	-0.000569	-0.002456			
51237	9497026	-9.859006	-0.030109	0.136845	-0.004193	-0.003581	-0.002219			
51238	9497051	-9.852052	-0.045931	0.122387	-0.002898	0.000194	-0.001174	-26.778284	88.766312	82.075012
51239	9497076	-9.844267	-0.050307	0.104618	-0.004150	-0.000738	-0.002401			
51240	9497101	-9.821485	-0.047734	0.112236	-0.002040	-0.006577	0.001861			
51241	9497126	-9.841805	-0.035068	0.138193	-0.001122	-0.005326	0.001615			
51242	9497151	-9.853249	-0.059088	0.110904	-0.004014	-0.003067	-0.003178	-26.703981	88.764732	82.148773
51243	9497176	-9.835566	-0.067469	0.118951	-0.002578	0.000072	-0.001046			
51244	9497201	-9.825939	-0.077388	0.121766	-0.005175	0.001182	-0.003214			
51245	9497226	-9.843594	-0.065488	0.104144	-0.003345	-0.000148	-0.003614			
51246	9497251	-9.827453	-0.067822	0.118426	-0.012100	-0.000226	0.000703	-26.711208	88.765518	82.142273
51247	9497276	-9.844886	-0.046309	0.119032	-0.005941	-0.003231	-0.006057			
51248	9497301	-9.835487	-0.054540	0.079645	-0.001651	-0.002952	-0.000043			
51249	9497326	-9.820742	-0.058820	0.092058	-0.001916	-0.000699	-0.002016			
51250	9497351	-9.830271	-0.079058	0.133829	-0.004584	-0.003394	-0.002538	-26.704432	88.764572	82.148499
51251	9497376	-9.854830	-0.054095	0.126202	-0.005317	-0.000307	-0.003482			
51252	9497401	-9.855294	-0.048689	0.113782	-0.006685	-0.001362	-0.000341			
51253	9497426	-9.846830	-0.033168	0.099328	0.002396	0.000866	-0.001636			
51254	9497451	-9.820368	-0.057160	0.106347	-0.005707	0.004080	-0.000380	-26.709509	88.765518	82.142929
51255	9497476	-9.837473	-0.040299	0.141495	-0.006057	-0.000955	0.000814			
51256	9497501	-9.859591	-0.041917	0.102754	-0.005336	0.000410	0.000882			
51257	9497526	-9.836203	-0.020676	0.126588	-0.007947	-0.000228	-0.005209			
51258	9497551	-9.854321	-0.066204	0.146899	-0.008179	-0.002870	0.000557	-26.679411	88.764885	82.175804
51259	9497576	-9.858088	-0.048535	0.103768	-0.005598	-0.005214	0.002524			
51260	9497601	-9.818972	-0.058673	0.114071	-0.000030	0.000761	-0.000416			
51261	9497626	-9.861594	-0.037339	0.108034	-0.005758	0.001164	-0.007062			
51262	9497651	-9.880650	-0.044407	0.122964	-0.005460	0.002146	-0.004108	-26.690355	88.765846	82.164047
51263	9497676	-9.883361	-0.053354	0.117330	-0.003651	-0.002603	-0.002918			
51264	9497701	-9.832877	-0.063485	0.139044	-0.004372	0.000291	-0.002140			
51265	9497726	-9.842592	-0.041649	0.125204	-0.001286	0.001498	-0.005214			
51266	9497751	-9.857840	-0.033483	0.110402	-0.001518	0.000858	-0.004962	-26.740561	88.765205	82.113495
51267	9497776	-9.805219	-0.086309	0.102566	-0.006053	-0.003617	-0.001703			
51268	9497801	-9.834825	-0.078061	0.096934	-0.004128	-0.003646	-0.001775			
51269	9497826	-9.809113	-0.048107	0.115000	-0.008041	-0.001448	-0.001620			
51270	9497851	-9.847265	-0.037032	0.099801	-0.008322	0.001445	-0.005449	-26.744228	88.764572	82.111153
51271	9497876	-9.847834	-0.038682	0.119916	-0.005242	0.003709	0.000133			
51272	9497901	-9.823368	-0.046252	0.106483	-0.001936	-0.004120	-0.000887			
51273	9497926	-9.816291	-0.051766	0.127907	-0.003611	0.002371	-0.004311			
51274	9497951	-9.841416	-0.061971	0.129553	-0.004147	-0.002795	0.001252	-26.725100	88.766159	82.128670
51275	9497976	-9.848017	-0.056583	0.108038	-0.006990	-0.002407	-0.002843			
51276	9498001	-9.861099	-0.050953	0.132979	-0.008756	-0.000820	-0.002645			
51277	9498026	-9.816639	-0.084485	0.095382	-0.006464	-0.002852	-0.005098			
51278	9498051	-9.829066	-0.091565	0.118471	-0.007042	-0.002527	-0.000668	-26.728956	88.764885	82.127083
51279	9498076	-9.848680	-0.054098	0.133833	-0.001530	0.003771	-0.000964			
51280	9498101	-9.838049	-0.056996	0.114686	-0.005409	-0.003468	-0.000995			
51281	9498126	-9.840338	-0.072509	0.130461	-0.008468	0.000021	-0.004499			
51282	9498151	-9.858614	-0.048184	0.109966	-0.007738	-0.000800	-0.003284	-26.746357	88.765518	82.110016
51283	9498176	-9.857691	-0.052208	0.123372	-0.001906	-0.000827	-0.002399			
51284	9498201	-9.842275	-0.072138	0.135267	-0.006585	0.001155	-0.004689			
51285	9498226	-9.812742	-0.082487	0.156222	-0.003611	0.000304	-0.002395			
51286	9498251	-9.828674	-0.078128	0.104524	0.001742	-0.000757	-0.001644	-26.772976	88.765678	82.082466
51287	9498276	-9.856826	-0.056803	0.149245	-0.003166	0.000903	0.001265			
51288	9498301	-9.826118	-0.068588	0.134743	-0.005656	-0.001539	-0.000222			
51289	9498326	-9.822196	-0.069189	0.116930	-0.003198	-0.000396	-0.002147			
51290	9498351	-9.845525	-0.062156	0.101231	-0.006424	0.002192	-0.004293	-26.769773	88.766159	82.085823
51291	9498376	-9.861819	-0.057739	0.108095	-0.002395	-0.003944	-0.004338			
51292	9498401	-9.828967	-0.050935	0.095446	-0.008796	-0.001793	-0.003420			
51293	9498426	-9.837439	-0.075732	0.130881	-0.002061	0.002345	-0.000145			
51294	9498451	-9.859817	-0.060897	0.098953	-0.010195	0.001733	-0.006145	-26.810249	88.765999	82.046402
51295	9498476	-9.835773	-0.078072	0.096853	-0.006734	0.002061	-0.003149			
51296	9498501	-9.829301	-0.085050	0.064737	0.000417	0.000705	0.001702			
51297	9498526	-9.838782	-0.082876	0.131469	-0.002803	-0.002649	0.000924			
51298	9498551	-9.859735	-0.035397	0.111386	-0.002451	0.000133	-0.002073	-26.786779	88.767105	82.068550
51299	9498576	-9.837609	-0.050278	0.106509	-0.006092	-0.000323	-0.002901			
51300	9498601	-9.837187	-0.059178	0.134742	-0.009181	0.000669	0.001723			
51301	9498626	-9.812033	-0.052710	0.136096	-0.004503	0.000423	-0.000720			
51302	9498651	-9.838999	-0.026372	0.130474	-0.007536	-0.000463	0.003387	-26.740307	88.767738	82.117249
51303	9498676	-9.845792	-0.053934	0.128141	-0.008319	-0.002351	0.001647			
51304	9498701	-9.840178	-0.040478	0.118044	-0.006601	-0.002073	0.000550			
51305	9498726	-9.850923	-0.023166	0.124839	-0.006360	-0.007887	-0.000571			
51306	9498751	-9.858095	-0.032620	0.149736	-0.004400	-0.000863	-0.000601	-26.657495	88.767738	82.200226
51307	9498776	-9.866948	-0.035666	0.126265	-0.006154	0.002472	0.003527			
51308	9498801	-9.841633	-0.065340	0.095012	-0.008711	-0.000370	-0.003859			
51309	9498826	-9.841818	-0.058460	0.111326	-0.006820	0.000572	-0.002828			
51310	9498851	-9.860486	-0.050587	0.110967	-0.003968	-0.002219	0.000742	-26.635536	88.768700	82.223129
51311	9498876	-9.854132	-0.026299	0.111825	-0.003420	0.000706	0.002161			
51312	9498901	-9.846115	-0.048226	0.090740	-0.005396	-0.001863	-0.002143			
51313	9498926	-9.839619	-0.048579	0.120873	-0.009879	0.000395	-0.000647			
51314	9498951	-9.852510	-0.042483	0.112271	-0.002643	0.002190	-0.004435	-26.631601	88.769653	82.227531
51315	9498976	-9.852332	-0.052289	0.105147	-0.003554	0.001024	0.000629			
51316	9499001	-9.834928	-0.040885	0.116533	-0.001480	-0.000234	-0.002983			
51317	9499026	-9.858238	-0.045561	0.121927	-0.004366	0.001906	-0.004044			
51318	9499051	-9.850160	-0.045469	0.122406	-0.006860	-0.002541	-0.007267	-26.673988	88.769020	82.185760
51319	9499076	-9.860354	-0.062474	0.112823	-0.006218	0.000067	-0.000015			
51320	9499101	-9.825409	-0.043764	0.124177	-0.001284	-0.000371	-0.002977			
51321	9499126	-9.827612	-0.060381	0.128074	-0.000127	-0.004672	-0.001019			
51322	9499151	-9.843987	-0.057186	0.151073	-0.000598	0.000295	-0.003682	-26.665588	88.768852	82.193199
51323	9499176	-9.838808	-0.069732	0.109371	-0.006439	0.000842	-0.000201			
51324	9499201	-9.850168	-0.082495	0.123302	0.000997	0.000581	-0.003232			
51325	9499226	-9.831876	-0.063298	0.129951	-0.003989	0.000437	0.000882			
51326	9499251	-9.836054	-0.064095	0.114190	-0.006630	-0.001489	-0.001943	-26.653410	88.769966	82.204697
51327	9499276	-9.851914	-0.052481	0.115170	-0.006104	0.000389	-0.003031			
51328	9499301	-9.864342	-0.054133	0.123441	-0.008084	-0.001964	-0.000142			
51329	9499326	-9.831036	-0.086362	0.116481	-0.004731	0.001583	-0.001423			
51330	9499351	-9.841503	-0.049055	0.117024	-0.000294	0.002827	-0.002192	-26.663513	88.771248	82.194069
51331	9499376	-9.837765	-0.082235	0.120364	-0.007248	0.002183	-0.000836			
51332	9499401	-9.854746	-0.062231	0.130046	-0.005378	0.001632	-0.003211			
51333	9499426	-9.822337	-0.061311	0.123228	0.001889	-0.002003	-0.007617			
51334	9499451	-9.846383	-0.073141	0.107942	-0.004561	0.002231	-0.001161	-26.712860	88.771881	82.144516
51335	9499476	-9.829622	-0.048442	0.121803	-0.008564	-0.000553	0.001019			
51336	9499501	-9.842539	-0.046274	0.126117	-0.005616	0.001444	0.002620			
51337	9499526	-9.824639	-0.067406	0.124158	-0.005998	-0.000830	0.000103			
51338	9499551	-9.864628	-0.032875	0.128661	-0.008999	0.000991	-0.000255	-26.657755	88.773155	82.201263
51339	9499576	-9.817243	-0.053761	0.132262	-0.009923	-0.000523	-0.004889			
51340	9499601	-9.825314	-0.057103	0.133757	-0.001024	-0.000158	0.001381			
51341	9499626	-9.826212	-0.052153	0.116544	-0.006850	-0.002658	-0.001821			
51342	9499651	-9.858173	-0.047343	0.115221	-0.002484	-0.000712	-0.003301	-26.658533	88.772362	82.201874
51343	9499676	-9.849336	-0.067057	0.111751	-0.005472	0.004868	-0.001720			
51344	9499701	-9.842312	-0.046978	0.167381	-0.005613	-0.000955	-0.002973			
51345	9499726	-9.846008	-0.069994	0.118031	-0.002293	-0.000839	-0.003362			
51346	9499751	-9.873323	-0.048747	0.101950	-0.004224	-0.004680	-0.003181	-26.682211	88.772202	82.178391
51347	9499776	-9.878487	-0.028250	0.127764	-0.002290	0.001629	-0.000589			
51348	9499801	-9.837985	-0.062278	0.115622	-0.004052	0.000164	-0.001299			
51349	9499826	-9.839572	-0.053873	0.123240	-0.000480	0.002618	-0.004444			
51350	9499851	-9.843564	-0.067801	0.102693	-0.004071	-0.001250	-0.000219	-26.690794	88.773796	82.168037
51351	9499876	-9.859115	-0.047309	0.112810	-0.007322	0.002299	-0.003582			
51352	9499901	-9.852910	-0.047683	0.111350	-0.003384	-0.000599	-0.000663			
51353	9499926	-9.850234	-0.044178	0.132435	-0.002365	0.001223	-0.004053			
51354	9499951	-9.846113	-0.053659	0.101785	-0.005727	-0.002138	-0.006370	-26.741623	88.773796	82.117607
51355	9499976	-9.823543	-0.069489	0.103559	-0.002797	-0.001304	-0.003684			
51356	9500001	-9.842878	-0.054302	0.119946	-0.005704	-0.000185	-0.001229			
51357	9500026	-9.863107	-0.041438	0.130636	-0.003803	-0.003904	-0.003627			
51358	9500051	-9.847003	-0.066213	0.117549	-0.003794	0.002038	-0.003533	-26.764212	88.773949	82.094574
51359	9500076	-9.844190	-0.057451	0.106525	-0.004664	-0.000751	-0.002523			
51360	9500101	-9.847234	-0.061981	0.146320	-0.004077	-0.001594	-0.008108			
51361	9500126	-9.843439	-0.046247	0.117530	-0.005792	0.000386	-0.004759			
51362	9500151	-9.851355	-0.055172	0.104632	-0.007915	0.000609	-0.004363	-26.839960	88.773155	82.019730
51363	9500176	-9.864182	-0.058674	0.106647	-0.008319	-0.000887	-0.004238			
51364	9500201	-9.818715	-0.044472	0.120770	-0.003275	0.000250	0.001711			
51365	9500226	-9.839517	-0.058595	0.122857	-0.003792	-0.001967	-0.001307			
51366	9500251	-9.846192	-0.058229	0.123287	-0.006190	0.000900	-0.002897	-26.835817	88.773949	82.023468
51367	9500276	-9.849362	-0.064659	0.110464	-0.007828	-0.004098	-0.000156			
51368	9500301	-9.838538	-0.055164	0.112192	-0.004251	0.002219	-0.006743			
51369	9500326	-9.843087	-0.035773	0.117120	-0.008732	-0.001860	-0.003217			
51370	9500351	-9.840995	-0.060202	0.135743	-0.005770	0.000010	-0.000720	-26.852112	88.772835	82.009933
51371	9500376	-9.836143	-0.059953	0.118962	-0.004575	-0.001858	-0.004643			
51372	9500401	-9.839867	-0.081793	0.150137	-0.004923	-0.000955	-0.004190			
51373	9500426	-9.849083	-0.057885	0.129510	-0.006156	0.003804	-0.005376			
51374	9500451	-9.865332	-0.052339	0.127274	-0.004528	-0.000750	-0.000654	-26.903063	88.772835	81.959290
51375	9500476	-9.864026	-0.068033	0.101292	-0.001723	0.001432	-0.002390			
51376	9500501	-9.834920	-0.052540	0.138148	-0.004292	-0.002286	0.001575			
51377	9500526	-9.836430	-0.080476	0.130941	-0.002275	-0.001286	-0.000606			
51378	9500551	-9.869444	-0.065124	0.123917	-0.003910	-0.000216	-0.001167	-26.870440	88.773796	81.990540
51379	9500576	-9.834043	-0.072687	0.113738	-0.003839	-0.003204	-0.006957			
51380	9500601	-9.828501	-0.058328	0.113717	-0.002801	-0.003307	-0.003308			
51381	9500626	-9.825574	-0.082146	0.150572	-0.004907	-0.001670	-0.006181			
51382	9500651	-9.845474	-0.076730	0.122391	-0.005047	-0.003156	-0.004585	-26.922220	88.772202	81.938499
51383	9500676	-9.845895	-0.075045	0.109919	-0.003162	-0.001562	-0.000541			
51384	9500701	-9.836243	-0.051892	0.118974	-0.004818	-0.002314	-0.006245			
51385	9500726	-9.843762	-0.060993	0.121343	0.002648	0.002931	-0.002198			
51386	9500751	-9.843767	-0.060111	0.122279	0.000067	0.005332	-0.006540	-26.987608	88.772835	81.871269
51387	9500776	-9.850252	-0.063096	0.098906	-0.004713	0.000794	-0.000843			
51388	9500801	-9.840536	-0.043101	0.103633	0.002471	-0.001393	0.000921			
51389	9500826	-9.828579	-0.051133	0.110753	-0.004107	0.001842	-0.002059			
51390	9500851	-9.824298	-0.052584	0.113666	-0.006835	-0.003181	-0.003105	-26.971769	88.772835	81.886650
51391	9500876	-9.841704	-0.071311	0.118985	-0.010230	-0.000648	0.002301			
51392	9500901	-9.864704	-0.030605	0.135424	0.003406	-0.004672	0.000778			
51393	9500926	-9.832803	-0.054512	0.107922	-0.003701	-0.003265	-0.006898			
51394	9500951	-9.843307	-0.051305	0.106046	-0.005032	0.000331	-0.006613	-26.969740	88.772202	81.888397
51395	9500976	-9.835159	-0.059844	0.115093	-0.004181	0.002295	-0.000004			
51396	9501001	-9.826975	-0.060523	0.100714	-0.003149	-0.002676	-0.008242			
51397	9501026	-9.834141	-0.073343	0.129994	-0.004438	-0.002044	-0.003810			
51398	9501051	-9.823172	-0.069757	0.121300	-0.005141	-0.004125	-0.004143	-27.007465	88.772041	81.849449
51399	9501076	-9.835845	-0.087948	0.128553	-0.007142	-0.001171	0.002936			
51400	9501101	-9.786195	-0.097878	0.129223	-0.007965	0.000414	-0.002132			
51401	9501126	-9.821206	-0.062218	0.095886	-0.003362	-0.001702	-0.003241			
51402	9501151	-9.843501	-0.048392	0.131494	-0.005500	-0.003166	-0.006443	-27.005219	88.771248	81.853485
51403	9501176	-9.861713	-0.077526	0.132963	-0.001538	0.001563	-0.003284			
51404	9501201	-9.842485	-0.049638	0.123307	-0.005315	-0.000639	-0.004250			
51405	9501226	-9.848690	-0.052188	0.130032	-0.001179	0.000282	-0.002334			
51406	9501251	-9.823191	-0.063953	0.114055	-0.008006	0.001581	-0.001732	-27.043686	88.771561	81.815163
51407	9501276	-9.836065	-0.064141	0.115110	-0.006984	0.001594	-0.004295			
51408	9501301	-9.848632	-0.051532	0.119906	-0.004213	0.003389	-0.002503			
51409	9501326	-9.849524	-0.053899	0.115661	-0.006054	0.000511	-0.003017			
51410	9501351	-9.843390	-0.052435	0.121907	-0.007294	-0.002605	-0.000921	-27.079227	88.771881	81.781418
51411	9501376	-9.851909	-0.061731	0.131044	-0.005922	-0.001618	-0.003743			
51412	9501401	-9.840219	-0.045948	0.136238	-0.006627	-0.003429	0.001124			
51413	9501426	-9.828270	-0.077307	0.115068	-0.005174	0.001112	-0.002122			
51414	9501451	-9.824924	-0.074829	0.107869	-0.006720	0.001077	-0.004108	-27.085590	88.771248	81.776649
51415	9501476	-9.882669	-0.029485	0.111531	-0.006375	-0.003102	0.001323			
51416	9501501	-9.821158	-0.072418	0.109704	-0.005981	0.006455	-0.004467			
51417	9501526	-9.836424	-0.066754	0.101696	-0.010866	-0.000729	0.000955			
51418	9501551	-9.857470	-0.065828	0.113790	-0.004782	-0.001208	-0.004318	-27.090818	88.772682	81.772011
51419	9501576	-9.858006	-0.064018	0.120491	-0.004607	-0.000300	-0.001493			
51420	9501601	-9.833579	-0.052290	0.153044	-0.000560	-0.004745	0.002258			
51421	9501626	-9.837240	-0.052028	0.126593	-0.007498	-0.000226	-0.004697			
51422	9501651	-9.850383	-0.070752	0.133419	-0.006306	0.000446	-0.003596	-27.081770	88.773315	81.779991
51423	9501676	-9.864526	-0.053664	0.152216	-0.005922	-0.003551	-0.002144			
51424	9501701	-9.825188	-0.064152	0.129961	-0.000538	-0.001189	0.002471			
51425	9501726	-9.823153	-0.066747	0.111773	-0.006911	-0.006929	-0.002420			
51426	9501751	-9.850532	-0.043711	0.103724	-0.005117	-0.002697	-0.001760	-27.022888	88.772362	81.839157
51427	9501776	-9.862937	-0.058617	0.138210	-0.002061	0.002201	-0.001235			
51428	9501801	-9.821958	-0.063469	0.143338	-0.000864	-0.001729	-0.004202			
51429	9501826	-9.866083	-0.064006	0.116241	-0.001630	-0.001469	-0.000803			
51430	9501851	-9.875202	-0.068245	0.138780	-0.006917	-0.000136	0.000180	-27.015356	88.772514	81.846214
51431	9501876	-9.868360	-0.043025	0.134890	-0.003755	0.001003	-0.003411			
51432	9501901	-9.829659	-0.076230	0.105486	0.001051	0.000837	-0.001310			
51433	9501926	-9.827681	-0.052769	0.123168	-0.003007	0.005539	-0.004354			
51434	9501951	-9.865772	-0.054707	0.126770	-0.006971	0.001532	0.000003	-27.057020	88.774117	81.803749
51435	9501976	-9.862614	-0.069065	0.105664	-0.005719	0.002003	-0.004099			
51436	9502001	-9.834290	-0.051741	0.111783	-0.005931	-0.001490	-0.003995			
51437	9502026	-9.841682	-0.039731	0.127543	-0.004666	0.005513	-0.003769			
51438	9502051	-9.845198	-0.048281	0.099345	-0.005445	0.000149	0.002171	-27.095772	88.774750	81.765999
51439	9502076	-9.827286	-0.044156	0.119371	-0.005135	-0.000052	-0.003612			
51440	9502101	-9.819865	-0.055575	0.096793	-0.009151	0.001365	-0.003524			
51441	9502126	-9.821831	-0.059205	0.114614	-0.006588	-0.004922	-0.003052			
51442	9502151	-9.831403	-0.055982	0.114650	-0.008619	-0.003213	-0.000666	-27.102070	88.774750	81.760788
51443	9502176	-9.846152	-0.053215	0.109365	-0.009078	0.003505	0.000593			
51444	9502201	-9.825299	-0.057618	0.133377	-0.010897	-0.006355	-0.001960			
51445	9502226	-9.800550	-0.094363	0.134150	-0.008316	-0.002892	-0.003169			
51446	9502251	-9.810507	-0.084042	0.105924	-0.008303	-0.000815	0.001338	-27.065348	88.774750	81.800262
51447	9502276	-9.818906	-0.061850	0.109290	-0.010361	-0.000261	0.003336			
51448	9502301	-9.804970	-0.071684	0.107779	-0.006230	0.000125	-0.001293			
51449	9502326	-9.845559	-0.036528	0.131502	-0.002506	-0.004466	-0.004661			
51450	9502351	-9.863508	-0.045130	0.126273	-0.006680	0.000446	-0.000517	-27.033243	88.774750	81.833740
51451	9502376	-9.860025	-0.062372	0.136820	-0.002745	-0.002593	-0.000291			
51452	9502401	-9.840974	-0.056315	0.124274	-0.002058	-0.002590	-0.006059			
51453	9502426	-9.812641	-0.067031	0.107365	-0.007069	-0.001961	-0.003292			
51454	9502451	-9.844136	-0.052926	0.088825	-0.007263	-0.001837	-0.002712	-27.040293	88.773796	81.827065
51455	9502476	-9.863430	-0.050385	0.122910	-0.008945	-0.001222	-0.005719			
51456	9502501	-9.812307	-0.069377	0.134604	-0.004615	0.001699	-0.003222			
51457	9502526	-9.816133	-0.060585	0.121736	-0.008968	0.000213	0.002180			
51458	9502551	-9.818071	-0.061221	0.127971	-0.010437	-0.000077	0.000322	-27.043182	88.774117	81.826668
51459	9502576	-9.834808	-0.049410	0.114613	-0.001922	0.001489	-0.004248			
51460	9502601	-9.807957	-0.075587	0.138413	-0.004382	0.004151	-0.007820			
51461	9502626	-9.854974	-0.044679	0.131963	-0.007200	0.002693	-0.002557			
51462	9502651	-9.846680	-0.061653	0.132461	-0.002225	-0.003231	-0.002536	-27.122438	88.774437	81.747452
51463	9502676	-9.851397	-0.059120	0.119522	-0.003912	0.000107	0.002040			
51464	9502701	-9.843821	-0.055290	0.119393	-0.004378	0.004156	-0.006536			
51465	9502726	-9.818798	-0.075384	0.119742	-0.008029	0.006422	-0.004335			
51466	9502751	-9.877104	-0.049777	0.101407	-0.002705	0.001866	-0.005069	-27.204155	88.775711	81.665939
51467	9502776	-9.856921	-0.070475	0.111884	-0.005084	-0.001724	-0.000857			
51468	9502801	-9.816772	-0.085797	0.121244	-0.010782	0.000302	-0.002632			
51469	9502826	-9.841889	-0.051781	0.108924	-0.007804	-0.000873	-0.003411			
51470	9502851	-9.849503	-0.055719	0.114648	-0.005110	0.003441	-0.001919	-27.223909	88.776344	81.647888
51471	9502876	-9.877152	-0.052713	0.116218	-0.003757	0.005738	0.004442			
51472	9502901	-9.852666	-0.036999	0.127661	-0.008327	0.001897	-0.001211			
51473	9502926	-9.822233	-0.057006	0.099189	-0.005053	0.003837	0.000520			
51474	9502951	-9.847999	-0.060918	0.114209	-0.005504	0.001627	-0.001733	-27.212999	88.779869	81.658875
51475	9502976	-9.881936	-0.058268	0.128814	-0.001013	-0.003017	-0.003050			
51476	9503001	-9.859107	-0.047735	0.110459	-0.007798	-0.002940	-0.002457			
51477	9503026	-9.815436	-0.071306	0.106825	-0.001377	0.000666	-0.001243			
51478	9503051	-9.841233	-0.066943	0.110346	-0.003302	0.000694	-0.001231	-27.207129	88.778908	81.665298
51479	9503076	-9.850883	-0.061011	0.119518	-0.002287	-0.000703	0.002220			
51480	9503101	-9.834926	-0.044800	0.124269	-0.003634	-0.005063	-0.002675			
51481	9503126	-9.841996	-0.048093	0.118962	-0.005887	-0.000381	-0.000338			
51482	9503151	-9.852809	-0.060116	0.119027	-0.000861	0.000614	-0.000663	-27.158670	88.779716	81.712318
51483	9503176	-9.832746	-0.063230	0.117522	-0.009513	-0.001492	-0.003347			
51484	9503201	-9.828520	-0.049022	0.096863	-0.004646	-0.001463	-0.003232			
51485	9503226	-9.826154	-0.053480	0.109329	-0.005077	-0.000116	-0.003926			
51486	9503251	-9.848118	-0.055889	0.124776	-0.003767	-0.000739	-0.001302	-27.178539	88.779228	81.693192
51487	9503276	-9.839249	-0.042934	0.125202	-0.000325	-0.002290	-0.001001			
51488	9503301	-9.815311	-0.087130	0.116938	-0.008436	-0.001013	-0.002065			
51489	9503326	-9.827548	-0.059731	0.117457	-0.001128	0.001195	0.001198			
51490	9503351	-9.846682	-0.060665	0.130012	-0.004162	-0.000352	-0.001624	-27.152365	88.779869	81.718666
51491	9503376	-9.891230	-0.033573	0.118737	-0.009146	0.001232	-0.001979			
51492	9503401	-9.835690	-0.058992	0.123713	-0.006151	0.002006	0.001474			
51493	9503426	-9.813695	-0.064878	0.120356	-0.005259	-0.004254	-0.001575			
51494	9503451	-9.849888	-0.070230	0.129539	-0.006095	0.001869	-0.004174	-27.154058	88.779869	81.719238
51495	9503476	-9.864408	-0.051427	0.128655	-0.002512	0.000058	-0.004317			
51496	9503501	-9.828156	-0.048277	0.114108	-0.001684	0.000215	0.000618			
51497	9503526	-9.851873	-0.049387	0.100815	-0.003584	0.001463	-0.002570			
51498	9503551	-9.840989	-0.048395	0.110810	-0.003828	-0.000472	0.001645	-27.147438	88.780678	81.725403
51499	9503576	-9.835302	-0.091377	0.125601	-0.000761	0.003313	-0.004952			
51500	9503601	-9.821010	-0.053198	0.125096	-0.006384	0.000764	-0.004303			
51501	9503626	-9.817636	-0.054448	0.119333	-0.001866	-0.000185	-0.000922			
51502	9503651	-9.834626	-0.071524	0.128095	-0.004780	-0.003870	-0.009589	-27.225111	88.780357	81.647095
51503	9503676	-9.826106	-0.061659	0.117928	-0.006270	0.001414	-0.003017			
51504	9503701	-9.818178	-0.041908	0.104476	-0.007445	-0.001767	-0.000665			
51505	9503726	-9.809809	-0.072462	0.122683	0.000256	-0.002606	-0.002225			
51506	9503751	-9.870756	-0.040087	0.132071	-0.005297	-0.000949	-0.000529	-27.212645	88.780838	81.659027
51507	9503776	-9.835970	-0.038678	0.125665	-0.003856	-0.000028	-0.002389			
51508	9503801	-9.811829	-0.070827	0.138047	-0.006416	-0.004274	-0.002794			
51509	9503826	-9.844439	-0.045955	0.124733	-0.003536	-0.000420	-0.008169			
51510	9503851	-9.845055	-0.075835	0.131952	-0.001857	-0.000243	-0.000218	-27.239201	88.780190	81.632225
51511	9503876	-9.836905	-0.072207	0.113234	-0.006239	-0.003825	-0.003625			
51512	9503901	-9.833549	-0.074573	0.114663	0.000858	-0.003695	-0.003967			
51513	9503926	-9.811139	-0.079083	0.120775	-0.004439	-0.001913	-0.001889			
51514	9503951	-9.847027	-0.072563	0.133893	-0.002143	-0.001609	-0.000472	-27.224913	88.779076	81.645836
51515	9503976	-9.866542	-0.030955	0.124848	-0.003020	-0.000010	-0.002007			
51516	9504001	-9.823263	-0.068034	0.134190	-0.008269	0.002027	-0.000189			
51517	9504026	-9.825875	-0.048563	0.131812	-0.007080	0.003022	-0.001018			
51518	9504051	-9.840184	-0.041962	0.121364	-0.002089	-0.001095	-0.001699	-27.227829	88.780678	81.642731
51519	9504076	-9.855455	-0.048626	0.140134	-0.003171	0.000566	-0.002643			
51520	9504101	-9.838907	-0.072003	0.129025	-0.006132	0.000504	-0.007701			
51521	9504126	-9.862577	-0.042285	0.123384	-0.008437	0.001314	-0.002110			
51522	9504151	-9.854953	-0.069341	0.098885	-0.008856	0.000140	-0.004366	-27.298141	88.781158	81.573189
51523	9504176	-9.853469	-0.048857	0.126775	-0.009072	-0.005223	-0.002018			
51524	9504201	-9.846306	-0.053143	0.133346	-0.006196	0.001225	-0.002316			
51525	9504226	-9.837336	-0.077468	0.118017	-0.007069	0.000432	-0.001353			
51526	9504251	-9.871939	-0.058633	0.128304	-0.005662	-0.003876	-0.005224	-27.302906	88.780518	81.570076
51527	9504276	-9.840690	-0.076053	0.118995	-0.006767	-0.002979	0.001381			
51528	9504301	-9.828682	-0.040703	0.106424	-0.004621	0.003636	-0.004995			
51529	9504326	-9.797483	-0.071464	0.131177	-0.003457	0.001730	-0.001109			
51530	9504351	-9.835972	-0.066345	0.106918	-0.004210	0.003400	-0.000381	-27.312874	88.781158	81.561035
51531	9504376	-9.831262	-0.062534	0.106461	-0.005665	0.000386	-0.004181			
51532	9504401	-9.849906	-0.056021	0.105079	-0.005624	0.001563	0.000829			
51533	9504426	-9.840570	-0.048037	0.119512	-0.003731	-0.005767	0.002900			
51534	9504451	-9.838690	-0.050623	0.127490	-0.000626	0.003317	-0.003409	-27.295391	88.782120	81.578430
51535	9504476	-9.827185	-0.085246	0.109790	-0.002818	0.001740	-0.001167			
51536	9504501	-9.827627	-0.057038	0.122212	-0.008753	0.002921	-0.004098			
51537	9504526	-9.832543	-0.071414	0.099789	0.001344	-0.002387	-0.000557			
51538	9504551	-9.843664	-0.068202	0.119915	-0.002050	0.001089	-0.009762	-27.358593	88.783081	81.513306
51539	9504576	-9.855392	-0.041579	0.114221	-0.007352	0.003338	-0.002298			
51540	9504601	-9.825582	-0.062521	0.111746	-0.007939	-0.002427	-0.001691			
51541	9504626	-9.870547	-0.047459	0.113871	-0.007556	-0.002289	-0.001431			
51542	9504651	-9.853713	-0.038200	0.144980	-0.000177	-0.002800	0.000282	-27.338978	88.782608	81.534904
51543	9504676	-9.835470	-0.060858	0.091121	-0.003262	0.001802	0.001401			
51544	9504701	-9.840767	-0.056648	0.091704	-0.004300	-0.003973	0.001755			
51545	9504726	-9.824059	-0.079898	0.131871	-0.004014	-0.003265	-0.002535			
51546	9504751	-9.834216	-0.070151	0.136695	-0.000475	-0.001851	-0.004458	-27.299173	88.782608	81.573257
51547	9504776	-9.841818	-0.068186	0.131427	-0.002967	0.000510	0.001074			
51548	9504801	-9.810321	-0.061782	0.106919	-0.006609	-0.004408	-0.002663			
51549	9504826	-9.836112	-0.065304	0.125684	-0.004317	-0.002049	-0.005801			
51550	9504851	-9.845207	-0.063073	0.129546	-0.002033	-0.001293	-0.006256	-27.318850	88.782120	81.553154
51551	9504876	-9.808469	-0.057501	0.107288	-0.007258	0.002171	-0.002629			
51552	9504901	-9.841967	-0.049028	0.114195	-0.004674	-0.000696	-0.005665			
51553	9504926	-9.838097	-0.064990	0.138169	-0.003390	-0.004862	-0.002484			
51554	9504951	-9.858057	-0.064182	0.129181	0.000328	-0.003129	-0.005564	-27.357557	88.780518	81.514717
51555	9504976	-9.856699	-0.049128	0.110006	-0.006823	-0.003639	-0.003618			
51556	9505001	-9.843056	-0.077071	0.117110	-0.006908	-0.004862	-0.002919			
51557	9505026	-9.846260	-0.057913	0.134282	-0.001772	0.005110	-0.002691			
51558	9505051	-9.843206	-0.062783	0.112200	-0.003950	0.002870	-0.005586	-27.406181	88.781479	81.465469
51559	9505076	-9.847568	-0.089258	0.102215	-0.005619	0.002909	-0.005512			
51560	9505101	-9.829861	-0.059569	0.106434	-0.005646	0.000274	0.003704			
51561	9505126	-9.829670	-0.076688	0.108375	-0.008228	-0.001125	0.003704			
51562	9505151	-9.834689	-0.056878	0.107949	-0.004165	-0.002423	-0.002018	-27.367548	88.781319	81.506218
51563	9505176	-9.842994	-0.055602	0.140026	-0.002852	0.004703	-0.004674			
51564	9505201	-9.855895	-0.047039	0.129144	-0.004727	-0.002886	-0.002785			
51565	9505226	-9.857206	-0.051716	0.120484	-0.004181	0.000025	-0.006112			
51566	9505251	-9.865850	-0.050948	0.131537	-0.007746	0.001849	-0.000764	-27.425871	88.782120	81.447807
51567	9505276	-9.849649	-0.039516	0.106069	-0.003389	-0.000605	-0.003743			
51568	9505301	-9.825955	-0.045939	0.138538	-0.007714	0.000021	-0.008927			
51569	9505326	-9.847578	-0.060138	0.120973	-0.004104	-0.002886	-0.007084			
51570	9505351	-9.835878	-0.071536	0.099877	-0.004850	-0.007674	-0.004739	-27.499899	88.780190	81.373978
51571	9505376	-9.857530	-0.053709	0.100827	-0.008218	-0.001715	-0.001810			
51572	9505401	-9.848166	-0.043800	0.107037	-0.003377	-0.001188	-0.004645			
51573	9505426	-9.848583	-0.078596	0.088805	-0.002213	0.000452	-0.003164			
51574	9505451	-9.861011	-0.047256	0.110455	-0.006552	-0.001559	0.000495	-27.502607	88.780190	81.371590
51575	9505476	-9.827201	-0.086811	0.115050	-0.003119	0.000885	-0.004187			
51576	9505501	-9.832807	-0.064784	0.130872	-0.004764	0.002477	-0.004043			
51577	9505526	-9.826138	-0.060247	0.120245	-0.002439	0.003941	0.000829			
51578	9505551	-9.845561	-0.068578	0.121358	-0.003721	0.002050	-0.000326	-27.539745	88.781799	81.334290
51579	9505576	-9.857687	-0.057606	0.132993	-0.010121	-0.002860	-0.006299			
51580	9505601	-9.826118	-0.022728	0.119868	-0.005291	-0.000884	0.001267			
51581	9505626	-9.851444	-0.046071	0.100872	-0.007181	-0.002348	-0.002711			
51582	9505651	-9.855156	-0.052669	0.100395	-0.005330	-0.003789	0.002146	-27.504410	88.781158	81.370682
51583	9505676	-9.856277	-0.047315	0.115223	-0.004409	-0.000814	-0.001688			
51584	9505701	-9.821449	-0.048611	0.107914	-0.005613	-0.007550	-0.002491			
51585	9505726	-9.841995	-0.076716	0.099359	0.000200	-0.004537	0.001489			
51586	9505751	-9.867655	-0.053758	0.120566	-0.009432	-0.004077	-0.005220	-27.460672	88.779549	81.415108
51587	9505776	-9.852373	-0.064112	0.134854	-0.001767	-0.001143	0.000933			
51588	9505801	-9.808683	-0.084709	0.120260	-0.007519	-0.001575	-0.001305			
51589	9505826	-9.834921	-0.083204	0.124225	-0.004351	0.001520	-0.001736			
51590	9505851	-9.857945	-0.068756	0.119595	-0.000900	-0.004755	-0.003709	-27.437250	88.779549	81.437653
51591	9505876	-9.811090	-0.074582	0.103962	-0.004850	0.000724	-0.005467			
51592	9505901	-9.810466	-0.064092	0.136537	-0.005338	0.000666	0.002290			
51593	9505926	-9.840332	-0.072461	0.129555	-0.003318	-0.002863	-0.001639			
51594	9505951	-9.858047	-0.060256	0.120449	-0.006537	0.003603	-0.006278	-27.473152	88.779396	81.403305
51595	9505976	-9.831691	-0.068251	0.109359	-0.009355	-0.002323	-0.003672			
51596	9506001	-9.822482	-0.077049	0.102072	-0.003093	0.002182	-0.002575			
51597	9506026	-9.825559	-0.068330	0.120295	-0.003059	0.003348	-0.000902			
51598	9506051	-9.814233	-0.064557	0.128418	-0.006273	-0.000526	-0.003287	-27.505198	88.780518	81.371162
51599	9506076	-9.830200	-0.035009	0.108893	-0.002307	-0.002715	-0.003757			
51600	9506101	-9.823303	-0.067671	0.138558	-0.003004	-0.002727	-0.003180			
51601	9506126	-9.838961	-0.065228	0.123824	-0.002868	-0.004919	-0.000305			
51602	9506151	-9.867625	-0.054027	0.115311	-0.004248	-0.003900	0.000478	-27.461206	88.778908	81.414574
51603	9506176	-9.868461	-0.022251	0.109992	-0.002894	-0.002083	-0.003621			
51604	9506201	-9.830886	-0.049013	0.095445	-0.006685	0.000700	0.001024			
51605	9506226	-9.846926	-0.074320	0.120940	-0.003047	0.000633	-0.002834			
51606	9506251	-9.844905	-0.040981	0.112323	-0.007340	-0.001648	-0.006554	-27.486574	88.779076	81.389427
51607	9506276	-9.829432	-0.056288	0.105008	-0.007741	-0.000615	-0.002003			
51608	9506301	-9.839016	-0.057055	0.117028	-0.004238	-0.001967	0.000738			
51609	9506326	-9.820377	-0.063590	0.121718	-0.002648	0.002187	-0.003023			
51610	9506351	-9.846072	-0.066218	0.120995	-0.006138	-0.004783	-0.000550	-27.461794	88.778908	81.414864
51611	9506376	-9.843534	-0.068251	0.099771	-0.004455	0.002676	-0.004233			
51612	9506401	-9.824656	-0.058633	0.108388	-0.001960	-0.005224	0.000268			
51613	9506426	-9.841794	-0.063252	0.116579	-0.004928	0.001508	-0.002117			
51614	9506451	-9.835476	-0.068225	0.106025	-0.001302	0.000216	-0.001495	-27.464069	88.779228	81.411934
51615	9506476	-9.826904	-0.065667	0.101154	-0.001171	0.000277	-0.000730			
51616	9506501	-9.825736	-0.054538	0.120304	-0.002800	0.001292	0.000305			
51617	9506526	-9.850555	-0.056499	0.133427	-0.003996	-0.001320	0.000556			
51618	9506551	-9.842950	-0.046154	0.113702	-0.003524	-0.000277	-0.002462	-27.437477	88.780838	81.436890
51619	9506576	-9.827404	-0.078022	0.128980	-0.009562	-0.000134	-0.005452			
51620	9506601	-9.837191	-0.049387	0.112773	-0.008968	-0.004445	-0.002272			
51621	9506626	-9.849869	-0.045950	0.155005	-0.005287	-0.003287	-0.001891			
51622	9506651	-9.836505	-0.061144	0.103131	-0.008512	0.001045	-0.006989	-27.479097	88.779228	81.398293
51623	9506676	-9.826033	-0.062908	0.108864	-0.006470	-0.004266	0.001246			
51624	9506701	-9.844367	-0.040758	0.100820	-0.003782	-0.004549	-0.003119			
51625	9506726	-9.847437	-0.033485	0.122378	-0.007728	-0.002606	0.002545			
51626	9506751	-9.854516	-0.054979	0.154092	-0.003162	-0.005898	-0.002100	-27.394817	88.778275	81.482422
51627	9506776	-9.835640	-0.073540	0.143986	-0.007711	-0.007525	0.000593			
51628	9506801	-9.808950	-0.058959	0.111684	-0.005780	-0.003804	0.000863			
51629	9506826	-9.827147	-0.056033	0.119917	-0.000823	-0.005282	-0.004798			
51630	9506851	-9.831410	-0.043786	0.092074	-0.002357	-0.000842	-0.002660	-27.338791	88.776993	81.537689
51631	9506876	-9.850561	-0.052621	0.126212	-0.008340	-0.000243	-0.004816			
51632	9506901	-9.831977	-0.056261	0.133314	-0.005127	-0.000110	-0.001167			
51633	9506926	-9.850289	-0.059257	0.095982	-0.007813	0.003780	-0.002037			
51634	9506951	-9.836507	-0.064566	0.111299	-0.004384	-0.001460	-0.001246	-27.362238	88.776993	81.516167
51635	9506976	-9.842563	-0.073960	0.107488	-0.003147	-0.002073	0.001638			
51636	9507001	-9.829140	-0.084913	0.115108	-0.007993	-0.001007	-0.002833			
51637	9507026	-9.831322	-0.069472	0.130419	-0.004855	-0.000685	-0.000793			
51638	9507051	-9.842677	-0.068986	0.117986	-0.004640	0.004612	-0.001147	-27.345844	88.778275	81.532555
51639	9507076	-9.862404	-0.028850	0.145005	-0.005363	-0.003092	-0.003105			
51640	9507101	-9.843109	-0.043133	0.134846	-0.003852	-0.002289	-0.002272			
51641	9507126	-9.828351	-0.068161	0.107970	-0.005360	-0.007416	-0.002235			
51642	9507151	-9.841903	-0.061087	0.129934	-0.005534	0.002789	0.001344	-27.313566	88.777313	81.565796
51643	9507176	-9.828549	-0.049654	0.103588	-0.002892	-0.000533	-0.005665			
51644	9507201	-9.828490	-0.063643	0.121780	-0.006501	-0.001560	-0.003678			
51645	9507226	-9.833466	-0.052601	0.135228	-0.002562	0.001082	-0.007966			
51646	9507251	-9.823890	-0.054162	0.129852	-0.004081	0.003728	0.002760	-27.369421	88.777634	81.509827
51647	9507276	-9.805685	-0.054195	0.112564	-0.007448	0.000171	-0.001228			
51648	9507301	-9.819012	-0.053853	0.110239	-0.005986	-0.003429	-0.000423			
51649	9507326	-9.830862	-0.049984	0.092993	-0.003350	0.002237	-0.004055			
51650	9507351	-9.843093	-0.065335	0.098410	-0.004037	-0.002095	0.001384	-27.347727	88.776833	81.533798
51651	9507376	-9.819376	-0.060941	0.106425	-0.008701	-0.000826	-0.002123			
51652	9507401	-9.833198	-0.065594	0.117998	-0.008751	-0.001478	-0.005205			
51653	9507426	-9.841692	-0.069314	0.113220	-0.005524	0.000407	0.001273			
51654	9507451	-9.853429	-0.045338	0.112826	-0.006087	-0.000525	-0.002961	-27.356298	88.777786	81.525414
51655	9507476	-9.880088	-0.062308	0.145551	-0.003847	-0.000614	-0.005145			
51656	9507501	-9.844385	-0.042769	0.108956	-0.004454	-0.003593	-0.003432			
51657	9507526	-9.826654	-0.061868	0.129933	-0.002438	-0.000522	-0.003295			
51658	9507551	-9.840393	-0.065734	0.127611	-0.001413	0.000086	0.002098	-27.361021	88.777313	81.520584
51659	9507576	-9.843797	-0.051740	0.108445	-0.007747	-0.000288	0.000694			
51660	9507601	-9.833413	-0.047015	0.113166	-0.003950	-0.001262	-0.005478			
51661	9507626	-9.834227	-0.062900	0.125232	-0.003730	-0.002554	-0.006954			
51662	9507651	-9.848963	-0.052640	0.098456	-0.003217	-0.006349	-0.003707	-27.382090	88.776344	81.498993
51663	9507676	-9.831190	-0.073567	0.117529	-0.006165	-0.002001	-0.000791			
51664	9507701	-9.796267	-0.051924	0.124058	-0.004195	-0.003785	-0.004658			
51665	9507726	-9.830493	-0.057566	0.124693	-0.003470	-0.000280	-0.003096			
51666	9507751	-9.838542	-0.065925	0.134852	-0.006317	-0.005700	-0.006326	-27.396606	88.775070	81.484787
51667	9507776	-9.856634	-0.053379	0.107110	-0.005996	-0.003429	-0.004646			
51668	9507801	-9.819500	-0.053404	0.110760	-0.008595	-0.005992	-0.000553			
51669	9507826	-9.832411	-0.087277	0.111239	-0.006124	0.000705	-0.004950			
51670	9507851	-9.848475	-0.058457	0.108905	-0.010571	0.002058	-0.000244	-27.400593	88.774437	81.482773
51671	9507876	-9.829283	-0.072080	0.112696	-0.004859	-0.000824	-0.004064			
51672	9507901	-9.823704	-0.064003	0.118917	-0.003150	-0.001954	-0.000417			
51673	9507926	-9.838504	-0.055493	0.107426	-0.005424	0.000910	-0.004114			
51674	9507951	-9.861297	-0.057621	0.101332	-0.004432	-0.000173	-0.004122	-27.431587	88.774269	81.451813
51675	9507976	-9.831983	-0.054349	0.129942	-0.008957	0.001234	-0.004807			
51676	9508001	-9.835184	-0.023460	0.121834	-0.010131	-0.002275	-0.005209			
51677	9508026	-9.840653	-0.081931	0.123748	-0.007865	0.000796	-0.008085			
51678	9508051	-9.851604	-0.043540	0.123345	-0.009218	-0.002185	0.001843	-27.485142	88.773636	81.401581
51679	9508076	-9.852759	-0.061973	0.113802	-0.003964	-0.002874	-0.004134			
51680	9508101	-9.822046	-0.043083	0.115546	-0.002968	-0.001822	-0.001700			
51681	9508126	-9.837709	-0.055916	0.134828	-0.008120	-0.002818	-0.001369			
51682	9508151	-9.841895	-0.060580	0.126675	-0.002056	-0.002323	-0.002086	-27.470715	88.772835	81.415840
51683	9508176	-9.846294	-0.047190	0.117579	-0.002021	-0.001349	-0.001955			
51684	9508201	-9.840429	-0.065340	0.130460	-0.006799	0.000055	-0.001165			
51685	9508226	-9.833706	-0.054853	0.100705	-0.000735	0.000614	-0.000922			
51686	9508251	-9.869374	-0.064448	0.112852	-0.004706	0.003004	0.001349	-27.454756	88.774117	81.430916
51687	9508276	-9.856230	-0.054444	0.122360	-0.004871	0.002229	0.003396			
51688	9508301	-9.830554	-0.059687	0.140435	-0.007741	0.003588	-0.001784			
51689	9508326	-9.840620	-0.041884	0.114211	0.000563	-0.002538	-0.004858			
51690	9508351	-9.860987	-0.054112	0.121463	-0.004676	-0.000302	-0.001749	-27.454803	88.775070	81.431305
51691	9508376	-9.874332	-0.049356	0.114329	-0.002033	0.001369	0.000373			
51692	9508401	-9.826289	-0.054240	0.131873	-0.004776	-0.003080	0.001056			
51693	9508426	-9.815651	-0.063978	0.126499	-0.000200	0.000235	0.002028			
51694	9508451	-9.836978	-0.064525	0.110807	-0.002451	0.000128	-0.001049	-27.397018	88.776344	81.487091
51695	9508476	-9.855145	-0.054165	0.100366	-0.007683	-0.000677	-0.002442			
51696	9508501	-9.821982	-0.046869	0.116425	-0.005253	0.003891	-0.000252			
51697	9508526	-9.845037	-0.039739	0.130525	-0.006083	-0.002062	0.002222			
51698	9508551	-9.860895	-0.065163	0.128676	-0.004476	-0.000818	-0.005154	-27.393463	88.776672	81.492203
51699	9508576	-9.835452	-0.077943	0.121375	-0.002009	-0.001803	-0.000866			
51700	9508601	-9.842801	-0.053645	0.104609	-0.001174	-0.002058	-0.005098			
51701	9508626	-9.866161	-0.062799	0.127220	-0.005148	0.004341	-0.004284			
51702	9508651	-9.862484	-0.058186	0.139210	-0.002149	0.002517	-0.003852	-27.447588	88.777313	81.436600
51703	9508676	-9.852468	-0.046753	0.114738	-0.007409	-0.003123	-0.001819			
51704	9508701	-9.827560	-0.064177	0.127105	-0.004128	-0.001647	-0.002654			
51705	9508726	-9.836042	-0.073865	0.130956	-0.009568	0.000452	-0.000963			
51706	9508751	-9.846412	-0.076152	0.119015	-0.005953	-0.002578	-0.001438	-27.429821	88.776672	81.456429
51707	9508776	-9.852356	-0.054262	0.111863	-0.000690	-0.002547	0.002266			
51708	9508801	-9.837670	-0.046502	0.109803	-0.006251	0.002903	-0.001085			
51709	9508826	-9.834873	-0.058377	0.142914	-0.004372	-0.000040	-0.003351			
51710	9508851	-9.840226	-0.073635	0.114702	-0.004539	-0.002427	0.000551	-27.394028	88.777313	81.491905
51711	9508876	-9.825627	-0.059185	0.111748	-0.000043	-0.003189	-0.000370			
51712	9508901	-9.806209	-0.057784	0.126980	-0.006890	-0.003377	-0.002980			
51713	9508926	-9.844190	-0.064311	0.119950	-0.002453	-0.000067	-0.003035			
51714	9508951	-9.858876	-0.060919	0.100826	-0.002155	0.002715	-0.003985	-27.404289	88.776672	81.481216
51715	9508976	-9.858704	-0.054796	0.138706	-0.006522	0.001413	-0.002629			
51716	9509001	-9.828806	-0.074990	0.119860	-0.004527	-0.000812	0.000234			
51717	9509026	-9.846628	-0.047859	0.096509	-0.004338	-0.002819	-0.001253			
51718	9509051	-9.866643	-0.067763	0.139677	-0.001614	0.003880	-0.005712	-27.426031	88.777954	81.458946
51719	9509076	-9.844625	-0.092866	0.095984	-0.001694	0.000596	-0.000790			
51720	9509101	-9.827132	-0.066755	0.140422	-0.002469	0.002906	-0.001802			
51721	9509126	-9.855988	-0.063211	0.101775	-0.001270	0.003378	-0.000969			
51722	9509151	-9.842974	-0.071438	0.093567	-0.002730	0.000963	0.000435	-27.429508	88.779396	81.454201
51723	9509176	-9.891319	-0.027965	0.120203	-0.006767	-0.001381	-0.006361			
51724	9509201	-9.833145	-0.039230	0.132853	-0.009546	-0.000520	-0.004876			
51725	9509226	-9.828030	-0.057431	0.111227	-0.006394	0.000490	-0.011165			
51726	9509251	-9.874032	-0.036597	0.115380	-0.007847	-0.005460	-0.000867	-27.510399	88.777786	81.375664
51727	9509276	-9.852974	-0.052180	0.130074	-0.002433	-0.002389	-0.000288			
51728	9509301	-9.827775	-0.051537	0.136637	-0.008291	0.000475	-0.002182			
51729	9509326	-9.833944	-0.048140	0.125154	-0.007026	-0.000863	-0.002711			
51730	9509351	-9.877652	-0.043002	0.097085	-0.004385	0.000416	-0.003219	-27.514727	88.778275	81.371124
51731	9509376	-9.838085	-0.065456	0.137250	-0.004943	-0.002375	-0.002784			
51732	9509401	-9.836535	-0.074859	0.137676	-0.010991	-0.003052	0.001074			
51733	9509426	-9.847975	-0.073580	0.139146	-0.003885	0.001471	0.002560			
51734	9509451	-9.837812	-0.067184	0.096914	-0.006989	-0.002086	-0.000088	-27.454325	88.778275	81.433289
51735	9509476	-9.856941	-0.077895	0.130972	-0.004654	0.005193	-0.002486			
51736	9509501	-9.821999	-0.086287	0.117444	-0.006582	-0.000979	-0.002712			
51737	9509526	-9.842282	-0.056433	0.104086	-0.000387	0.001778	-0.002389			
51738	9509551	-9.845592	-0.067204	0.124234	-0.005925	0.002849	-0.000896	-27.493483	88.780838	81.393051
51739	9509576	-9.824520	-0.065156	0.099253	-0.005561	-0.000963	-0.002715			
51740	9509601	-9.832632	-0.036656	0.121771	-0.003794	0.000297	-0.001368			
51741	9509626	-9.820289	-0.030195	0.114990	-0.001550	0.002408	0.000049			
51742	9509651	-9.833789	-0.068794	0.142927	-0.003085	-0.000080	-0.001109	-27.490561	88.780838	81.396591
51743	9509676	-9.830451	-0.063766	0.131821	-0.002946	0.001939	0.001204			
51744	9509701	-9.826909	-0.068194	0.106923	-0.004047	-0.000428	-0.006500			
51745	9509726	-9.856563	-0.062426	0.114316	-0.004806	-0.006567	-0.001715			
51746	9509751	-9.831338	-0.068079	0.129966	-0.007348	-0.002867	-0.001311	-27.476641	88.780678	81.410286
51747	9509776	-9.821675	-0.073016	0.117512	-0.006315	-0.005439	-0.002609			
51748	9509801	-9.825861	-0.044616	0.122238	-0.008652	0.000153	0.000508			
51749	9509826	-9.833759	-0.068204	0.136174	-0.001931	-0.000060	-0.000861			
51750	9509851	-9.867727	-0.037666	0.103730	-0.004786	0.001189	-0.001226	-27.451170	88.780190	81.437462
51751	9509876	-9.824615	-0.056062	0.116906	-0.006908	-0.002594	-0.001061			
51752	9509901	-9.823982	-0.064952	0.110223	-0.003441	-0.002791	0.000980			
51753	9509926	-9.842831	-0.050764	0.126515	-0.006281	-0.000195	-0.003485			
51754	9509951	-9.849686	-0.053474	0.085415	-0.004990	-0.002490	0.000411	-27.407362	88.780838	81.480606
51755	9509976	-9.822969	-0.064283	0.100140	-0.005485	-0.004828	0.002256			
51756	9510001	-9.797770	-0.059730	0.096639	-0.004245	-0.002038	-0.003372			
51757	9510026	-9.828210	-0.070732	0.113525	-0.003111	0.001094	0.001509			
51758	9510051	-9.841746	-0.062146	0.127997	-0.008918	-0.001597	-0.000927	-27.349537	88.780037	81.540161
51759	9510076	-9.825171	-0.082996	0.107797	-0.003362	-0.001563	-0.001514			
51760	9510101	-9.828316	-0.062210	0.112148	-0.003725	-0.004221	-0.002421			
51761	9510126	-9.833275	-0.054954	0.130427	-0.004788	-0.004628	0.000590			
51762	9510151	-9.817618	-0.089405	0.133153	-0.001311	0.000867	0.000098	-27.299227	88.780838	81.588043
51763	9510176	-9.832060	-0.073352	0.123659	-0.005195	-0.000176	-0.001240			
51764	9510201	-9.847010	-0.062777	0.134241	-0.003850	-0.000021	-0.002655			
51765	9510226	-9.831694	-0.047767	0.089617	-0.000945	-0.003476	-0.007746			
51766	9510251	-9.859715	-0.066960	0.117617	-0.005011	-0.005794	-0.000183	-27.302883	88.779549	81.584671
51767	9510276	-9.860919	-0.045145	0.113234	-0.004560	-0.002308	-0.007217			
51768	9510301	-9.839386	-0.057736	0.122212	0.000282	0.001021	-0.001316			
51769	9510326	-9.851317	-0.054154	0.118918	-0.002691	-0.000526	-0.006384			
51770	9510351	-9.863091	-0.027702	0.121399	-0.005630	-0.000572	-0.002007	-27.356447	88.778755	81.530960
51771	9510376	-9.846014	-0.065083	0.130424	-0.007643	-0.001639	-0.002335			
51772	9510401	-9.856903	-0.057734	0.105565	-0.008480	-0.001724	-0.004064			
51773	9510426	-9.847343	-0.072736	0.130892	-0.008419	0.002344	-0.006667			
51774	9510451	-9.849031	-0.081457	0.113176	-0.006235	0.002648	0.000510	-27.399485	88.779228	81.489769
51775	9510476	-9.856188	-0.044582	0.118466	-0.003776	-0.000079	0.001122			
51776	9510501	-9.847040	-0.049620	0.113114	-0.001331	0.003776	0.003196			
51777	9510526	-9.834677	-0.056365	0.129855	-0.006126	0.001170	-0.001486			
51778	9510551	-9.849853	-0.054985	0.114616	-0.000198	-0.000347	-0.003631	-27.378710	88.780838	81.509537
51779	9510576	-9.831594	-0.070479	0.120767	-0.004545	-0.002559	-0.003697			
51780	9510601	-9.821445	-0.055058	0.143224	-0.007634	-0.001967	-0.003110			
51781	9510626	-9.837943	-0.062124	0.128943	-0.005847	-0.001737	-0.001314			
51782	9510651	-9.848638	-0.037330	0.114095	-0.006691	0.002900	-0.002310	-27.392117	88.780838	81.497162
51783	9510676	-9.856229	-0.040318	0.114671	-0.005047	-0.004764	-0.001462			
51784	9510701	-9.836491	-0.056162	0.113520	-0.009739	0.004205	-0.001912			
51785	9510726	-9.827418	-0.068255	0.135545	-0.004014	0.005403	0.000001			
51786	9510751	-9.857202	-0.081275	0.125186	-0.008143	0.000224	-0.000784	-27.395714	88.781639	81.495605
51787	9510776	-9.823300	-0.045155	0.115871	-0.005510	0.003888	-0.002313			
51788	9510801	-9.837945	-0.050869	0.106854	-0.005223	0.002858	-0.003664			
51789	9510826	-9.850586	-0.043445	0.133701	-0.004701	0.004281	-0.007893			
51790	9510851	-9.846568	-0.056488	0.127034	-0.009792	0.001685	-0.000644	-27.483816	88.783730	81.408203
51791	9510876	-9.832120	-0.060738	0.108296	-0.005628	0.001889	0.001016			
51792	9510901	-9.845728	-0.052836	0.137086	-0.001302	0.000408	-0.002277			
51793	9510926	-9.834827	-0.049477	0.139865	-0.009936	0.006132	-0.003698			
51794	9510951	-9.851869	-0.051828	0.127030	-0.006214	0.006010	-0.003129	-27.539330	88.785339	81.354401
51795	9510976	-9.851355	-0.048332	0.113666	-0.005578	-0.000249	-0.003745			
51796	9511001	-9.835553	-0.057147	0.118853	-0.008735	-0.001329	0.000167			
51797	9511026	-9.845902	-0.059429	0.101581	-0.003785	0.003983	-0.003724			
51798	9511051	-9.840864	-0.046645	0.108318	0.000408	0.001287	0.001507	-27.547789	88.786629	81.345490
51799	9511076	-9.846431	-0.062019	0.115616	-0.004853	-0.002493	0.001247			
51800	9511101	-9.840155	-0.071489	0.118406	-0.004433	-0.002040	-0.004013			
51801	9511126	-9.840070	-0.076269	0.117429	-0.003840	0.001328	-0.004765			
51802	9511151	-9.876865	-0.063785	0.110366	-0.003582	0.003266	-0.008026	-27.602228	88.786308	81.291275
51803	9511176	-9.832923	-0.075573	0.114574	-0.000796	-0.003257	0.001936			
51804	9511201	-9.825961	-0.064731	0.121708	0.000511	-0.002468	-0.002681			
51805	9511226	-9.841138	-0.057372	0.097327	-0.005139	0.000283	-0.000787			
51806	9511251	-9.877008	-0.042087	0.089807	-0.004825	0.000416	-0.000218	-27.556469	88.786949	81.335495
51807	9511276	-9.847115	-0.053777	0.131409	-0.009468	-0.002906	-0.004773			
51808	9511301	-9.824615	-0.090141	0.110641	-0.008765	-0.000432	-0.001624			
51809	9511326	-9.802711	-0.094262	0.120125	-0.007592	0.001009	-0.000271			
51810	9511351	-9.839654	-0.046703	0.145247	-0.002499	-0.000125	-0.001054	-27.557835	88.787430	81.335251
51811	9511376	-9.852857	-0.047966	0.124199	0.001867	-0.000504	-0.000104			
51812	9511401	-9.834318	-0.045879	0.128000	0.000426	-0.003363	0.001872			
51813	9511426	-9.841876	-0.048275	0.119892	-0.003657	-0.004286	-0.002170			
51814	9511451	-9.828067	-0.076747	0.100612	-0.006695	-0.001237	-0.002849	-27.508369	88.786949	81.383537
51815	9511476	-9.837384	-0.058962	0.109250	-0.005542	0.002858	-0.000970			
51816	9511501	-9.822196	-0.070133	0.140825	-0.005478	0.001055	-0.000016			
51817	9511526	-9.824729	-0.046559	0.116360	-0.005549	0.001177	-0.002198			
51818	9511551	-9.846222	-0.036280	0.105976	-0.002466	-0.001426	-0.003052	-27.518721	88.788078	81.373360
51819	9511576	-9.824483	-0.070447	0.125600	-0.009528	-0.006908	-0.001591			
51820	9511601	-9.822327	-0.086880	0.117866	-0.000916	-0.001848	-0.002420			
51821	9511626	-9.860462	-0.078594	0.106994	-0.005715	0.000536	0.002033			
51822	9511651	-9.826176	-0.079219	0.108786	-0.006185	-0.003040	-0.000617	-27.460945	88.786949	81.432541
