// General information: 
//  MT Manager version: 2022.0.0 
//  XDA version: 2022.0.0 build 7085 rev 119802 built on 2022-11-08
// Device information: 
//  DeviceId: 037004D1
//  ProductCode: MTi-300-2A5G4
//  Firmware Version: 1.4.1
//  Hardware Version: 2.1.0
// Device settings: 
//  Filter Profile: general(39.16)
//  Option Flags: Orientation Smoother Disabled, Position/Velocity Smoother Disabled, Continuous Zero Rotation Update Disabled, AHS Disabled, ICC Disabled
// Coordinate system: ENU
PacketCounter	SampleTimeFine	Acc_X	Acc_Y	Acc_Z	Gyr_X	Gyr_Y	Gyr_Z	Roll	Pitch	Yaw
16213	10259826	9.806271	0.282779	-0.139858	-0.004809	0.000262	-0.006607			
16214	10259851	9.820265	0.266711	-0.136128	-0.007163	-0.001776	-0.000325	112.925697	-88.232430	28.143719
16215	10259876	9.833219	0.256379	-0.130052	-0.004943	-0.007690	-0.002918			
16216	10259901	9.815657	0.277142	-0.105908	-0.005531	-0.003180	-0.005713			
16217	10259926	9.822729	0.258649	-0.133249	-0.006741	-0.001256	-0.003584			
16218	10259951	9.784968	0.308078	-0.134089	-0.009520	-0.002606	-0.004730	112.964096	-88.230873	28.103590
16219	10259976	9.807534	0.260082	-0.143223	-0.001276	-0.000006	-0.006412			
16220	10260001	9.795562	0.299160	-0.134558	-0.004347	0.000072	-0.004736			
16221	10260026	9.756355	0.306069	-0.125781	-0.002967	-0.002930	0.000574			
16222	10260051	9.799165	0.270476	-0.121182	-0.006311	-0.002347	0.000004	112.975967	-88.230209	28.092518
16223	10260076	9.813234	0.291685	-0.127454	-0.003740	-0.000884	-0.003970			
16224	10260101	9.806999	0.292944	-0.122173	-0.005049	-0.000197	-0.004281			
16225	10260126	9.813661	0.282205	-0.100522	-0.005871	0.006194	-0.001425			
16226	10260151	9.806437	0.289242	-0.102971	-0.003381	0.002430	0.001307	112.937073	-88.230545	28.131790
16227	10260176	9.817266	0.280985	-0.142320	-0.005332	-0.000969	0.000452			
16228	10260201	9.803802	0.279495	-0.118764	-0.006607	-0.001249	0.000457			
16229	10260226	9.816681	0.278266	-0.119805	-0.007741	0.000280	-0.001195			
16230	10260251	9.785314	0.279946	-0.133550	-0.008069	-0.001460	0.002515	112.962784	-88.231430	28.105055
16231	10260276	9.821638	0.270992	-0.135203	-0.005491	-0.002402	-0.002564			
16232	10260301	9.818035	0.288857	-0.129405	-0.003713	0.000739	0.000978			
16233	10260326	9.802776	0.270718	-0.166278	-0.004157	-0.003722	0.001530			
16234	10260351	9.816660	0.271801	-0.102066	-0.005487	-0.000130	0.001359	112.996407	-88.232872	28.070486
16235	10260376	9.786436	0.294872	-0.114356	-0.006518	0.000371	0.003162			
16236	10260401	9.786070	0.295147	-0.132586	-0.007035	0.000229	-0.000493			
16237	10260426	9.813860	0.279828	-0.128430	-0.006314	-0.000669	-0.003383			
16238	10260451	9.818830	0.267664	-0.138463	-0.004962	0.003694	0.000674	112.988525	-88.233864	28.077915
16239	10260476	9.841962	0.270797	-0.110868	-0.002028	-0.001872	0.002627			
16240	10260501	9.816854	0.269867	-0.129430	-0.003821	-0.004427	0.000240			
16241	10260526	9.782578	0.299571	-0.115364	-0.010084	-0.002474	0.001428			
16242	10260551	9.786356	0.303016	-0.116732	-0.002781	0.003465	-0.001833	113.023705	-88.234970	28.042797
16243	10260576	9.788577	0.320779	-0.126835	-0.003716	0.002480	-0.003310			
16244	10260601	9.797655	0.281991	-0.130748	-0.004826	-0.001092	-0.002685			
16245	10260626	9.813150	0.262767	-0.134130	-0.009030	0.002845	0.001578			
16246	10260651	9.801219	0.301008	-0.128843	-0.002976	-0.000867	-0.002816	113.004166	-88.235535	28.061954
16247	10260676	9.796789	0.283243	-0.148025	-0.003448	-0.002171	-0.002694			
16248	10260701	9.789312	0.301332	-0.130790	-0.004518	-0.006446	0.001007			
16249	10260726	9.794104	0.291203	-0.115388	-0.002648	-0.000790	0.000581			
16250	10260751	9.783917	0.274782	-0.128307	-0.002526	-0.001387	-0.007950	113.042236	-88.234535	28.025335
16251	10260776	9.781568	0.303318	-0.112991	-0.005113	-0.006199	-0.000978			
16252	10260801	9.800625	0.286700	-0.159065	-0.004031	-0.003462	0.002430			
16253	10260826	9.792227	0.267968	-0.149904	-0.001147	-0.001928	-0.000140			
16254	10260851	9.815842	0.297377	-0.098724	-0.002941	-0.001575	0.000638	113.110512	-88.235977	27.956881
16255	10260876	9.788195	0.310663	-0.122070	-0.004190	-0.000362	0.003088			
16256	10260901	9.819669	0.276682	-0.138501	-0.002904	0.001468	0.000401			
16257	10260926	9.817688	0.244864	-0.137596	-0.005333	-0.005172	-0.000271			
16258	10260951	9.794699	0.285642	-0.121641	-0.008334	-0.003161	-0.000314	113.154678	-88.237083	27.911980
16259	10260976	9.812667	0.292445	-0.114511	-0.005794	-0.000860	-0.006020			
16260	10261001	9.810662	0.284018	-0.159569	-0.005251	-0.001426	0.000967			
16261	10261026	9.797120	0.285270	-0.128301	-0.003955	0.002223	-0.001001			
16262	10261051	9.770812	0.288520	-0.115741	-0.005265	-0.000902	0.001359	113.158646	-88.237083	27.908455
16263	10261076	9.796040	0.301110	-0.139368	-0.000438	-0.000048	-0.002885			
16264	10261101	9.789901	0.302139	-0.150332	-0.002223	0.000052	-0.001533			
16265	10261126	9.798903	0.261256	-0.137919	-0.001983	0.000444	-0.000571			
16266	10261151	9.815729	0.278713	-0.120300	-0.003219	-0.001055	0.000711	113.162949	-88.237968	27.905069
16267	10261176	9.820353	0.298517	-0.138064	0.000344	-0.002228	0.000502			
16268	10261201	9.796897	0.280093	-0.158594	-0.002636	-0.005583	-0.002845			
16269	10261226	9.792646	0.309707	-0.146592	-0.008422	-0.004648	-0.001858			
16270	10261251	9.808883	0.291454	-0.116881	-0.001261	-0.000390	-0.005066	113.210358	-88.236977	27.859030
16271	10261276	9.814741	0.286551	-0.130327	-0.005969	0.000495	-0.005819			
16272	10261301	9.794272	0.255115	-0.146530	-0.002676	0.000244	0.002189			
16273	10261326	9.798513	0.278887	-0.109128	-0.007656	0.003506	-0.004897			
16274	10261351	9.822947	0.244995	-0.141414	-0.004818	-0.001156	-0.000255	113.189110	-88.237083	27.879894
16275	10261376	9.822783	0.285004	-0.118414	-0.004786	-0.000259	-0.003773			
16276	10261401	9.792298	0.298288	-0.144529	-0.000767	0.004604	-0.002533			
16277	10261426	9.790069	0.284505	-0.142602	-0.000224	0.005448	-0.002919			
16278	10261451	9.804646	0.274380	-0.090477	-0.006917	0.000419	-0.003187	113.131805	-88.237312	27.937840
16279	10261476	9.804659	0.295953	-0.136025	-0.006174	-0.000729	-0.001784			
16280	10261501	9.807007	0.295889	-0.130280	-0.002421	0.002047	-0.002612			
16281	10261526	9.832646	0.264902	-0.132326	-0.001884	0.003417	0.000216			
16282	10261551	9.794730	0.274501	-0.104870	-0.004284	-0.004321	-0.006422	113.119316	-88.237083	27.950853
16283	10261576	9.819086	0.265609	-0.098783	-0.002159	-0.002013	0.001535			
16284	10261601	9.813581	0.275420	-0.150464	-0.005582	-0.001302	-0.002560			
16285	10261626	9.804190	0.295003	-0.135538	-0.008184	0.004014	-0.002390			
16286	10261651	9.786950	0.291070	-0.111567	-0.006790	-0.003582	-0.000767	113.131599	-88.237419	27.938084
16287	10261676	9.802122	0.309167	-0.138922	-0.008017	-0.000815	0.002646			
16288	10261701	9.808953	0.294012	-0.133214	-0.005113	-0.001739	0.001028			
16289	10261726	9.797165	0.282472	-0.128830	-0.004680	-0.003546	-0.003085			
16290	10261751	9.808387	0.252983	-0.111637	-0.004022	-0.002442	-0.006415	113.165871	-88.237083	27.903475
16291	10261776	9.803365	0.278130	-0.122636	-0.004378	-0.000826	-0.001530			
16292	10261801	9.825940	0.279439	-0.154871	-0.007023	-0.004821	-0.005011			
16293	10261826	9.831444	0.288343	-0.140052	-0.005247	-0.002538	-0.009619			
16294	10261851	9.785088	0.288316	-0.115798	-0.007312	0.000602	-0.005879	113.165955	-88.234756	27.903198
16295	10261876	9.789584	0.311607	-0.119166	-0.007586	0.001509	-0.002341			
16296	10261901	9.805782	0.280299	-0.133139	-0.007077	0.001252	-0.005360			
16297	10261926	9.794577	0.299030	-0.130694	-0.006157	0.003020	0.000358			
16298	10261951	9.771037	0.303110	-0.106115	-0.001450	0.004072	-0.001319	113.115196	-88.235641	27.952768
16299	10261976	9.822909	0.275001	-0.118855	-0.005236	0.002132	-0.001770			
16300	10262001	9.811815	0.293645	-0.134227	-0.006115	-0.002994	-0.002691			
16301	10262026	9.799989	0.281424	-0.122182	-0.003538	-0.007597	-0.002658			
16302	10262051	9.802766	0.291116	-0.128909	-0.003926	-0.003347	-0.005075	113.152214	-88.234200	27.916029
16303	10262076	9.808205	0.259294	-0.096302	-0.004882	-0.003222	-0.000262			
16304	10262101	9.835654	0.263840	-0.154907	-0.001080	-0.001736	0.000761			
16305	10262126	9.837391	0.257574	-0.114104	-0.006944	0.003327	-0.001059			
16306	10262151	9.814938	0.260969	-0.110211	-0.007431	0.000939	0.001952	113.165268	-88.235748	27.902458
16307	10262176	9.791962	0.244029	-0.134092	-0.011626	-0.002699	-0.002100			
16308	10262201	9.791380	0.283188	-0.120605	-0.001699	0.001618	0.000009			
16309	10262226	9.813492	0.273203	-0.131204	-0.007623	0.004542	-0.005212			
16310	10262251	9.772295	0.281889	-0.111832	-0.000186	0.004543	-0.001259	113.123390	-88.236084	27.944098
16311	10262276	9.800510	0.278102	-0.120704	-0.003730	-0.001265	-0.001344			
16312	10262301	9.787210	0.301337	-0.097570	-0.002035	0.001988	-0.004344			
16313	10262326	9.792582	0.298316	-0.113449	-0.010236	0.001974	-0.004064			
16314	10262351	9.805846	0.270701	-0.123102	-0.005969	0.000298	-0.008444	113.084969	-88.235092	27.981970
16315	10262376	9.820507	0.282759	-0.131806	-0.001709	-0.002320	-0.000010			
16316	10262401	9.813174	0.288609	-0.111606	0.000072	0.002085	-0.004998			
16317	10262426	9.809820	0.293852	-0.119283	-0.001815	0.001091	-0.002681			
16318	10262451	9.804421	0.301269	-0.108731	-0.005512	0.000048	-0.007616	113.063202	-88.233650	28.006065
16319	10262476	9.783128	0.302213	-0.133065	-0.002511	-0.000718	0.003722			
16320	10262501	9.797194	0.294272	-0.158977	-0.000516	0.002934	0.000338			
16321	10262526	9.814308	0.288078	-0.140895	-0.002387	0.000821	-0.001527			
16322	10262551	9.820859	0.286931	-0.120760	-0.001779	0.001866	-0.002421	113.051758	-88.235199	28.018898
16323	10262576	9.819777	0.298338	-0.121713	-0.002146	0.001146	-0.006467			
16324	10262601	9.817903	0.279503	-0.166348	-0.005883	-0.001761	-0.001083			
16325	10262626	9.821049	0.282884	-0.143308	-0.004850	0.000340	0.004180			
16326	10262651	9.797910	0.260570	-0.130226	-0.008334	0.001185	0.004645	113.058029	-88.236862	28.012011
16327	10262676	9.814045	0.272479	-0.143726	-0.004798	0.002003	-0.004660			
16328	10262701	9.848756	0.271297	-0.132426	-0.002791	-0.000413	-0.000708			
16329	10262726	9.822598	0.260745	-0.115522	-0.001964	0.001538	-0.004281			
16330	10262751	9.809139	0.268579	-0.112582	-0.004761	-0.003092	-0.002377	113.045052	-88.236198	28.026049
16331	10262776	9.775466	0.301556	-0.124399	-0.002520	-0.000730	-0.000635			
16332	10262801	9.804876	0.283825	-0.146657	-0.005522	-0.005504	-0.003801			
16333	10262826	9.791061	0.273821	-0.124910	-0.002447	0.000556	-0.005440			
16334	10262851	9.799522	0.270181	-0.100035	-0.001457	0.004072	-0.001897	113.039001	-88.235977	28.032728
16335	10262876	9.799190	0.273070	-0.130310	-0.004230	-0.005807	-0.003736			
16336	10262901	9.822728	0.299088	-0.138029	-0.005898	0.000431	-0.005884			
16337	10262926	9.796344	0.281312	-0.148961	-0.005154	-0.000773	-0.001462			
16338	10262951	9.788160	0.274610	-0.119688	-0.008118	0.001886	-0.002077	113.041382	-88.234970	28.029945
16339	10262976	9.801826	0.290096	-0.128406	-0.006033	-0.003314	-0.002119			
16340	10263001	9.801801	0.296494	-0.137894	-0.007211	0.003248	-0.008047			
16341	10263026	9.797032	0.292434	-0.128811	-0.003316	-0.000298	-0.005381			
16342	10263051	9.794304	0.275068	-0.115448	-0.007334	-0.004819	-0.001542	113.039902	-88.233421	28.031174
16343	10263076	9.788898	0.291263	-0.119654	-0.004663	-0.000063	-0.004542			
16344	10263101	9.806447	0.307400	-0.139904	-0.001946	-0.000781	-0.001219			
16345	10263126	9.806202	0.280608	-0.124505	-0.008000	0.002338	-0.002149			
16346	10263151	9.812692	0.294956	-0.124593	-0.004481	0.000070	-0.003706	113.019958	-88.233421	28.050486
16347	10263176	9.821762	0.259119	-0.130861	-0.003289	-0.001267	-0.005771			
16348	10263201	9.812943	0.287259	-0.149476	-0.004467	0.001818	-0.003824			
16349	10263226	9.797570	0.296010	-0.145561	-0.006542	0.000750	-0.003123			
16350	10263251	9.783508	0.303031	-0.118762	-0.000231	-0.002697	-0.003928	113.004250	-88.232544	28.066370
16351	10263276	9.809401	0.296007	-0.133240	-0.012319	-0.005236	-0.004612			
16352	10263301	9.803322	0.280040	-0.119700	-0.005481	0.001475	-0.004792			
16353	10263326	9.801056	0.321686	-0.145124	-0.008874	0.001478	-0.005224			
16354	10263351	9.807513	0.294498	-0.131742	-0.002947	0.000487	-0.002040	112.988503	-88.231102	28.080778
16355	10263376	9.809017	0.279491	-0.113506	-0.009489	-0.001043	0.000404			
16356	10263401	9.833346	0.275550	-0.113682	-0.006640	-0.000350	-0.001523			
16357	10263426	9.813626	0.299791	-0.129396	-0.004740	-0.001876	-0.005192			
16358	10263451	9.780511	0.275445	-0.118192	-0.000465	0.000657	-0.004865	112.988068	-88.230103	28.081558
16359	10263476	9.776594	0.307665	-0.088903	-0.002208	0.003740	0.000605			
16360	10263501	9.803896	0.278781	-0.132182	-0.004242	0.000991	-0.001076			
16361	10263526	9.815905	0.264040	-0.119370	-0.003043	-0.004941	-0.003032			
16362	10263551	9.781952	0.274067	-0.117217	-0.002940	-0.000036	-0.006983	112.978600	-88.229660	28.091948
16363	10263576	9.803152	0.302568	-0.136539	-0.001468	-0.001875	-0.000843			
16364	10263601	9.799422	0.295337	-0.135519	-0.001706	-0.000119	0.002122			
16365	10263626	9.785650	0.295787	-0.143120	-0.002322	0.001024	-0.001140			
16366	10263651	9.807592	0.286369	-0.129361	-0.004217	0.000080	-0.000373	112.990753	-88.231430	28.080063
16367	10263676	9.808167	0.281270	-0.134648	0.000004	-0.001982	-0.003728			
16368	10263701	9.797234	0.285552	-0.147998	-0.001442	-0.002444	0.002046			
16369	10263726	9.812312	0.290256	-0.129362	-0.003585	0.000286	-0.003071			
16370	10263751	9.799730	0.299340	-0.116826	-0.006106	0.001478	0.000349	113.003815	-88.231651	28.068390
16371	10263776	9.796000	0.286766	-0.102455	-0.003797	0.001062	-0.001004			
16372	10263801	9.792243	0.296203	-0.131696	-0.004654	-0.000380	-0.003000			
16373	10263826	9.796079	0.285061	-0.112072	0.002258	-0.002524	-0.005472			
16374	10263851	9.817820	0.264559	-0.121243	0.002249	0.000261	-0.001866	112.999435	-88.231316	28.074409
16375	10263876	9.798028	0.295508	-0.141764	-0.001819	-0.001048	-0.005583			
16376	10263901	9.805444	0.309245	-0.135565	-0.005251	0.000319	-0.003000			
16377	10263926	9.817789	0.277286	-0.142753	-0.000598	0.007048	-0.005800			
16378	10263951	9.805968	0.264621	-0.130752	-0.000942	0.001557	-0.005116	112.939766	-88.230659	28.135399
16379	10263976	9.827286	0.277331	-0.137654	-0.006804	-0.005658	-0.005591			
16380	10264001	9.799220	0.273070	-0.134187	-0.002261	-0.007319	-0.001568			
16381	10264026	9.824094	0.261923	-0.130432	-0.001822	-0.002918	-0.002258			
16382	10264051	9.806477	0.296215	-0.120728	-0.000937	-0.000449	-0.002824	112.996574	-88.228775	28.080204
16383	10264076	9.773215	0.289139	-0.121567	-0.005363	-0.006397	-0.002004			
16384	10264101	9.803679	0.287960	-0.116371	-0.005633	0.000845	0.004509			
16385	10264126	9.822430	0.278902	-0.125564	-0.006536	0.000757	0.001299			
16386	10264151	9.779826	0.295946	-0.124906	-0.003988	0.000660	-0.004467	113.020584	-88.229996	28.055122
16387	10264176	9.814512	0.263575	-0.122659	-0.003301	-0.000288	-0.000574			
16388	10264201	9.804318	0.286997	-0.140803	-0.001316	0.001688	-0.001723			
16389	10264226	9.809281	0.272828	-0.143673	-0.002624	0.004704	-0.000671			
16390	10264251	9.793822	0.305647	-0.097667	-0.002708	-0.001249	-0.002182	112.999763	-88.230659	28.077423
16391	10264276	9.811924	0.268096	-0.100127	-0.000189	-0.000386	-0.010452			
16392	10264301	9.815107	0.270689	-0.158589	-0.005086	0.004025	0.005421			
16393	10264326	9.816991	0.296423	-0.127989	-0.005537	-0.002590	-0.000063			
16394	10264351	9.770618	0.310109	-0.129633	-0.003648	0.000416	-0.002551	112.987701	-88.230995	28.090141
16395	10264376	9.796463	0.301454	-0.131697	-0.001736	-0.001296	-0.001091			
16396	10264401	9.813184	0.293486	-0.124088	-0.000258	0.002547	-0.001138			
16397	10264426	9.800848	0.292038	-0.128311	-0.005139	0.002772	-0.005746			
16398	10264451	9.801516	0.280767	-0.136487	-0.000842	0.000526	-0.003843	112.956932	-88.230438	28.122908
16399	10264476	9.821871	0.284592	-0.124170	-0.003664	0.000536	-0.004733			
16400	10264501	9.819380	0.304883	-0.147127	-0.008966	0.000252	-0.003245			
16401	10264526	9.809181	0.310107	-0.126943	-0.006498	0.001395	-0.003378			
16402	10264551	9.796249	0.278121	-0.127836	-0.006698	0.001919	0.000097	112.926056	-88.230659	28.151941
16403	10264576	9.778465	0.288747	-0.120625	-0.009447	-0.004795	-0.003462			
16404	10264601	9.797476	0.294747	-0.127430	-0.003994	-0.003074	-0.000517			
16405	10264626	9.794026	0.312069	-0.145584	-0.000808	-0.000243	0.000136			
16406	10264651	9.778950	0.289790	-0.125354	-0.006847	-0.001907	-0.004481	112.962234	-88.229881	28.115875
16407	10264676	9.815507	0.259800	-0.122722	-0.003867	-0.002624	0.000957			
16408	10264701	9.797160	0.282451	-0.130227	-0.000392	0.000855	-0.001082			
16409	10264726	9.811139	0.278110	-0.148084	-0.008909	-0.003031	0.003023			
16410	10264751	9.777993	0.286265	-0.117311	-0.006220	-0.007117	0.002675	113.031334	-88.230438	28.047714
16411	10264776	9.811790	0.288691	-0.119800	-0.007065	-0.003138	-0.003143			
16412	10264801	9.817858	0.303135	-0.128476	-0.004379	-0.005160	-0.003991			
16413	10264826	9.812610	0.298139	-0.118326	-0.008160	0.001501	-0.001445			
16414	10264851	9.808795	0.280432	-0.079475	-0.007094	0.000095	-0.002551	113.045975	-88.230209	28.030985
16415	10264876	9.805058	0.295248	-0.121664	-0.006190	-0.000143	-0.001971			
16416	10264901	9.806016	0.277927	-0.163853	-0.005595	-0.001115	-0.005123			
16417	10264926	9.794447	0.276939	-0.140314	-0.005388	-0.001562	-0.005189			
16418	10264951	9.796999	0.282535	-0.103897	-0.005896	0.000568	-0.001262	113.038071	-88.229774	28.038113
16419	10264976	9.808144	0.277295	-0.123151	-0.003003	-0.002097	-0.003721			
16420	10265001	9.780979	0.308978	-0.106642	-0.007381	0.003059	-0.002337			
16421	10265026	9.814967	0.269924	-0.133133	-0.008649	0.006789	-0.001992			
16422	10265051	9.796168	0.280392	-0.116873	-0.005352	-0.002854	-0.004554	113.001091	-88.229996	28.073544
16423	10265076	9.835629	0.287564	-0.121359	-0.003996	-0.000757	-0.001214			
16424	10265101	9.826083	0.282485	-0.107439	-0.003466	-0.003789	-0.003859			
16425	10265126	9.785780	0.307664	-0.111022	-0.000633	0.000137	-0.003266			
16426	10265151	9.800381	0.291502	-0.129830	-0.002953	-0.001250	0.000775	113.021713	-88.228996	28.055273
16427	10265176	9.800896	0.290141	-0.131680	-0.008477	0.001167	-0.003694			
16428	10265201	9.797981	0.297321	-0.138455	-0.002526	-0.002733	-0.001225			
16429	10265226	9.821568	0.280166	-0.143306	-0.003546	0.000931	-0.003132			
16430	10265251	9.797595	0.287724	-0.133123	-0.001742	0.000839	-0.001465	113.010963	-88.229553	28.065216
16431	10265276	9.799941	0.285161	-0.122159	-0.005805	-0.002073	0.001997			
16432	10265301	9.815425	0.266462	-0.122675	-0.008124	-0.001802	-0.001080			
16433	10265326	9.821219	0.270693	-0.144760	-0.005989	-0.002995	-0.005196			
16434	10265351	9.812602	0.263129	-0.122162	-0.005613	-0.000466	-0.005189	113.032791	-88.228333	28.043592
16435	10265376	9.787033	0.283970	-0.111017	-0.002679	0.000046	-0.001983			
16436	10265401	9.839908	0.255083	-0.132401	-0.003317	-0.000359	-0.004032			
16437	10265426	9.819399	0.264500	-0.145686	-0.002973	0.001134	-0.003067			
16438	10265451	9.822287	0.239570	-0.099235	-0.003134	-0.001507	0.002433	113.032234	-88.228775	28.044771
16439	10265476	9.759370	0.299219	-0.136744	-0.010361	0.001907	-0.003165			
16440	10265501	9.818940	0.285794	-0.114625	-0.003831	-0.006174	-0.000280			
16441	10265526	9.803083	0.277675	-0.152296	-0.003123	0.001843	-0.003639			
16442	10265551	9.805946	0.294513	-0.109695	0.003043	-0.002037	0.006267	113.057785	-88.230209	28.019068
16443	10265576	9.807285	0.273615	-0.131301	-0.006028	-0.001767	-0.004031			
16444	10265601	9.815438	0.286616	-0.166780	-0.004750	-0.001618	-0.006539			
16445	10265626	9.824811	0.281387	-0.130403	-0.005850	-0.000913	-0.001596			
16446	10265651	9.801369	0.287659	-0.124539	-0.005196	-0.001426	-0.002880	113.063156	-88.228333	28.014172
16447	10265676	9.773167	0.289472	-0.113348	-0.004871	-0.001280	0.001930			
16448	10265701	9.805818	0.273378	-0.123134	-0.002344	-0.002137	0.003137			
16449	10265726	9.817204	0.270105	-0.109286	-0.006394	-0.002162	-0.003844			
16450	10265751	9.799135	0.304998	-0.109142	-0.005583	0.000565	-0.007038	113.081779	-88.228561	27.995525
16451	10265776	9.788763	0.304087	-0.122973	-0.005266	0.002906	-0.002211			
16452	10265801	9.813672	0.262926	-0.142282	-0.006568	0.003724	-0.002015			
16453	10265826	9.786174	0.281765	-0.122618	-0.001551	-0.005369	-0.002263			
16454	10265851	9.815969	0.293835	-0.111674	-0.008599	-0.003360	-0.004612	113.077522	-88.228668	27.998581
16455	10265876	9.813757	0.284993	-0.122189	0.001088	-0.001906	-0.006042			
16456	10265901	9.815617	0.290764	-0.126043	-0.007679	-0.002055	-0.005253			
16457	10265926	9.811243	0.298723	-0.128459	-0.006856	-0.005779	-0.001937			
16458	10265951	9.811084	0.278497	-0.138025	0.000882	-0.001381	-0.002198	113.106461	-88.226570	27.971447
16459	10265976	9.805165	0.294026	-0.137080	-0.006804	-0.005129	0.000955			
16460	10266001	9.808740	0.274621	-0.137926	-0.009465	0.002386	0.001638			
16461	10266026	9.827429	0.270773	-0.148135	-0.006644	-0.000155	-0.000685			
16462	10266051	9.807820	0.274718	-0.142703	-0.007501	0.002803	0.000353	113.116646	-88.228119	27.959959
16463	10266076	9.794678	0.281263	-0.109654	-0.006433	-0.001131	-0.006528			
16464	10266101	9.788886	0.294633	-0.123485	-0.002477	-0.000410	-0.004165			
16465	10266126	9.800024	0.283455	-0.132135	-0.010175	0.002500	-0.001048			
16466	10266151	9.797920	0.296642	-0.126889	-0.001080	0.002527	-0.000049	113.088043	-88.228004	27.988050
16467	10266176	9.799364	0.296209	-0.126480	-0.001626	-0.002915	-0.002062			
16468	10266201	9.793811	0.288772	-0.138848	-0.000018	0.002728	-0.004859			
16469	10266226	9.819067	0.284210	-0.132744	-0.001551	0.000970	-0.000116			
16470	10266251	9.805523	0.254345	-0.113996	-0.003147	0.000553	-0.002167	113.075447	-88.228226	28.002237
16471	10266276	9.783856	0.277442	-0.122515	-0.003649	0.000218	-0.002871			
16472	10266301	9.811367	0.247404	-0.122111	-0.002572	0.002891	0.000404			
16473	10266326	9.813059	0.270359	-0.132742	-0.007497	-0.001524	-0.000821			
16474	10266351	9.799952	0.287691	-0.128830	-0.006004	0.000049	-0.000045	113.070717	-88.228668	28.007200
16475	10266376	9.796694	0.284955	-0.135574	-0.004721	-0.002451	-0.002505			
16476	10266401	9.794574	0.306382	-0.143611	-0.011191	0.002088	-0.003810			
16477	10266426	9.794881	0.280197	-0.141717	-0.007512	0.001456	0.002980			
16478	10266451	9.816747	0.275022	-0.123198	-0.008316	-0.001998	-0.001846	113.071121	-88.229439	28.004063
16479	10266476	9.828470	0.263696	-0.148611	-0.014818	0.001121	-0.001174			
16480	10266501	9.806055	0.291948	-0.122656	-0.009704	-0.000598	-0.000809			
16481	10266526	9.798458	0.282598	-0.106808	-0.008599	-0.003032	-0.001402			
16482	10266551	9.810951	0.264377	-0.088618	-0.004268	0.000222	0.004376	113.088150	-88.230331	27.984682
16483	10266576	9.795928	0.292566	-0.103412	-0.009452	-0.000668	-0.007291			
16484	10266601	9.799698	0.307638	-0.127848	-0.003837	0.000279	-0.003132			
16485	10266626	9.805105	0.292435	-0.124097	-0.002511	-0.001305	-0.001280			
16486	10266651	9.789549	0.322741	-0.134112	-0.006048	-0.004666	0.000571	113.102562	-88.229660	27.970011
16487	10266676	9.781797	0.317901	-0.104746	-0.003050	0.002243	0.001752			
16488	10266701	9.813322	0.275726	-0.111123	-0.006960	0.004110	-0.000666			
16489	10266726	9.819830	0.274226	-0.158697	-0.004232	-0.003998	-0.006616			
16490	10266751	9.821781	0.252328	-0.120759	-0.006178	0.001073	-0.005883	113.075089	-88.229225	27.997328
16491	10266776	9.811762	0.292508	-0.122188	-0.008257	-0.001866	-0.003706			
16492	10266801	9.815793	0.296087	-0.165805	-0.007670	0.001825	-0.004263			
16493	10266826	9.813434	0.277439	-0.132283	0.001106	-0.002022	0.000818			
16494	10266851	9.780548	0.304692	-0.106682	-0.002119	-0.001368	-0.002377	113.080421	-88.229439	27.991840
16495	10266876	9.782494	0.305274	-0.113860	-0.008357	0.001560	0.000224			
16496	10266901	9.797425	0.278259	-0.163352	-0.010660	-0.002944	-0.004217			
16497	10266926	9.808032	0.287295	-0.125532	-0.003928	-0.001015	-0.002177			
16498	10266951	9.797612	0.287270	-0.134105	-0.002439	-0.003506	-0.001161	113.099617	-88.228996	27.972254
16499	10266976	9.797800	0.274514	-0.139867	-0.000487	-0.002171	0.001982			
16500	10267001	9.801848	0.284254	-0.119731	-0.003877	-0.000231	0.001289			
16501	10267026	9.799894	0.293929	-0.131242	-0.005686	-0.000340	-0.005049			
16502	10267051	9.817973	0.284339	-0.109748	-0.002919	-0.000480	-0.003399	113.112106	-88.229660	27.959969
16503	10267076	9.792116	0.291932	-0.102006	-0.003418	-0.003201	-0.002891			
16504	10267101	9.793191	0.285949	-0.110028	-0.007400	0.003511	-0.004131			
16505	10267126	9.821455	0.272518	-0.109690	-0.005810	0.005928	-0.005019			
16506	10267151	9.810901	0.279583	-0.111614	-0.002192	0.000232	-0.008522	113.054977	-88.228333	28.017153
16507	10267176	9.793573	0.266312	-0.132170	-0.001802	-0.001360	-0.000383			
16508	10267201	9.787804	0.303055	-0.122083	-0.007056	-0.003192	0.001733			
16509	10267226	9.808336	0.294712	-0.112554	-0.008209	0.000848	-0.001964			
16510	10267251	9.783904	0.277611	-0.132094	-0.001197	0.001746	-0.001778	113.067276	-88.228775	28.004904
16511	10267276	9.817425	0.255500	-0.115965	-0.007483	-0.000115	-0.005436			
16512	10267301	9.828548	0.261917	-0.156312	-0.003883	-0.000560	-0.001980			
16513	10267326	9.807549	0.294123	-0.137941	-0.004512	0.003371	-0.003240			
16514	10267351	9.815422	0.266005	-0.121705	-0.005336	0.000899	-0.003636	113.034088	-88.228333	28.037779
16515	10267376	9.801859	0.279454	-0.111621	-0.002337	-0.003195	-0.006680			
16516	10267401	9.822486	0.278559	-0.134719	-0.002448	-0.003248	0.000183			
16517	10267426	9.829493	0.259970	-0.151557	-0.002247	-0.005899	-0.003554			
16518	10267451	9.785707	0.278281	-0.117228	-0.006099	0.001156	0.002074	113.075493	-88.227898	27.996878
16519	10267476	9.792328	0.280241	-0.114842	-0.009598	0.002578	0.000936			
16520	10267501	9.813675	0.308735	-0.156253	-0.008070	-0.001670	-0.003320			
16521	10267526	9.798485	0.296944	-0.141311	-0.005674	-0.000925	-0.007427			
16522	10267551	9.793899	0.299948	-0.098146	-0.008126	-0.001991	-0.003070	113.066963	-88.227341	28.003658
16523	10267576	9.782481	0.271688	-0.121555	-0.011352	0.001253	-0.000022			
16524	10267601	9.826536	0.261653	-0.138564	-0.007547	-0.002180	-0.004290			
16525	10267626	9.791453	0.286719	-0.138380	-0.003770	0.000548	0.002135			
16526	10267651	9.783559	0.291912	-0.106700	-0.005516	0.000508	-0.002800	113.063278	-88.228119	28.005360
16527	10267676	9.794148	0.284473	-0.107223	-0.003982	0.000599	-0.003770			
16528	10267701	9.787528	0.296232	-0.138303	-0.009836	0.001793	-0.002402			
16529	10267726	9.813473	0.308151	-0.123103	-0.001705	0.004007	0.001179			
16530	10267751	9.818752	0.295123	-0.104981	-0.004330	0.000149	0.002389	113.039391	-88.228889	28.029659
16531	10267776	9.807503	0.275585	-0.170540	-0.004761	0.001372	-0.000045			
16532	10267801	9.805243	0.282506	-0.125497	-0.009151	0.000252	-0.001511			
16533	10267826	9.814209	0.292148	-0.131834	-0.003943	-0.004497	0.001208			
16534	10267851	9.819695	0.277287	-0.143369	-0.006552	-0.005132	-0.001870	113.076622	-88.229103	27.991793
16535	10267876	9.812639	0.256327	-0.115476	-0.006241	-0.000791	-0.001273			
16536	10267901	9.795488	0.296013	-0.119694	-0.001991	0.000837	0.001293			
16537	10267926	9.792052	0.301127	-0.111054	-0.007446	-0.000884	-0.001079			
16538	10267951	9.809049	0.298224	-0.158105	-0.006907	0.002295	-0.000545	113.075005	-88.230209	27.992821
16539	10267976	9.800235	0.299938	-0.121696	-0.006083	-0.005832	-0.001937			
16540	10268001	9.789281	0.290002	-0.100496	-0.007328	-0.002752	-0.002433			
16541	10268026	9.801780	0.267668	-0.152764	-0.007145	0.001390	-0.002602			
16542	10268051	9.805593	0.288545	-0.120204	-0.005479	0.004007	0.001322	113.084267	-88.231102	27.981821
16543	10268076	9.774022	0.296624	-0.110977	-0.003979	0.000404	-0.002933			
16544	10268101	9.810241	0.312743	-0.149085	-0.006025	-0.005370	0.002874			
16545	10268126	9.802711	0.299204	-0.137967	-0.003840	-0.003518	0.002943			
16546	10268151	9.813194	0.294979	-0.127461	-0.007652	-0.000562	-0.002871	113.130608	-88.231209	27.935625
16547	10268176	9.808087	0.303304	-0.088637	-0.008316	-0.001928	-0.000885			
16548	10268201	9.798320	0.275204	-0.147061	-0.010283	-0.002678	-0.003895			
16549	10268226	9.807213	0.286156	-0.144719	-0.005421	-0.002530	-0.004038			
16550	10268251	9.786066	0.275549	-0.090961	-0.001320	-0.004579	-0.001302	113.169525	-88.230103	27.896547
16551	10268276	9.805860	0.275153	-0.135063	-0.005803	0.001335	-0.006713			
16552	10268301	9.816086	0.300482	-0.146184	-0.006622	-0.000605	0.000466			
16553	10268326	9.786794	0.304911	-0.114828	-0.004293	0.002337	-0.004460			
16554	10268351	9.805923	0.297452	-0.113488	-0.000545	0.006293	0.004593	113.126549	-88.230766	27.939631
16555	10268376	9.787170	0.270133	-0.105263	-0.003935	-0.000626	-0.001855			
16556	10268401	9.802835	0.289294	-0.136999	-0.003880	-0.000490	-0.001276			
16557	10268426	9.822421	0.293118	-0.152437	-0.002952	-0.001450	-0.002892			
16558	10268451	9.811041	0.278421	-0.130811	-0.006646	-0.000291	-0.004341	113.127792	-88.231102	27.937849
16559	10268476	9.826281	0.266915	-0.108356	-0.004150	-0.000384	-0.006984			
16560	10268501	9.792629	0.302795	-0.129269	-0.006302	-0.000863	-0.003709			
16561	10268526	9.802093	0.299402	-0.112569	-0.010934	-0.000563	-0.006510			
16562	10268551	9.815966	0.293772	-0.111201	-0.004250	-0.000949	-0.001337	113.112083	-88.229774	27.952265
16563	10268576	9.803340	0.265395	-0.091432	-0.004557	0.000650	-0.004542			
16564	10268601	9.798208	0.278307	-0.135595	-0.003891	-0.004508	-0.003155			
16565	10268626	9.824727	0.250118	-0.131836	-0.004210	-0.000440	-0.003068			
16566	10268651	9.790538	0.307689	-0.109603	-0.003418	0.001258	-0.001585	113.111130	-88.228996	27.953587
16567	10268676	9.776129	0.314517	-0.105248	-0.007199	-0.002612	0.001484			
16568	10268701	9.815459	0.271922	-0.139485	-0.003125	-0.000027	-0.001141			
16569	10268726	9.802729	0.291429	-0.123100	-0.004449	-0.000565	-0.000121			
16570	10268751	9.807769	0.308139	-0.124581	-0.003736	-0.001143	-0.003396	113.131691	-88.229439	27.933617
16571	10268776	9.802608	0.304391	-0.128875	0.000335	-0.000161	-0.002758			
16572	10268801	9.809229	0.279069	-0.148995	-0.002415	0.000121	0.003211			
16573	10268826	9.815906	0.269956	-0.130803	-0.001504	0.001161	-0.002681			
16574	10268851	9.814119	0.290969	-0.115460	-0.001912	0.002389	-0.000817	113.120674	-88.230545	27.946320
16575	10268876	9.792884	0.275638	-0.116344	-0.004384	-0.001161	-0.007115			
16576	10268901	9.781342	0.294246	-0.135932	-0.003806	-0.000754	-0.002688			
16577	10268926	9.807815	0.322483	-0.160993	-0.001355	-0.001550	-0.005008			
16578	10268951	9.805007	0.255688	-0.112568	-0.004245	-0.000557	0.002640	113.124466	-88.229553	27.943428
16579	10268976	9.817317	0.232961	-0.130793	-0.003555	0.001250	-0.004672			
16580	10269001	9.793779	0.290605	-0.136007	-0.005133	-0.001428	-0.004160			
16581	10269026	9.807960	0.296832	-0.134142	-0.007017	-0.000024	0.003479			
16582	10269051	9.788108	0.316328	-0.120628	-0.004919	0.000076	-0.000434	113.121475	-88.230331	27.945408
16583	10269076	9.801126	0.304173	-0.122099	-0.001839	0.002198	-0.000174			
16584	10269101	9.814319	0.279750	-0.125179	-0.003885	-0.006565	-0.001244			
16585	10269126	9.803362	0.276225	-0.116915	0.002986	-0.005287	-0.004396			
16586	10269151	9.810368	0.282304	-0.106841	-0.003836	-0.000112	-0.005250	113.152985	-88.229225	27.916021
16587	10269176	9.815767	0.282313	-0.134179	-0.006784	0.000159	-0.005051			
16588	10269201	9.783726	0.298669	-0.145063	-0.011143	-0.001465	-0.001130			
16589	10269226	9.824278	0.274333	-0.106900	-0.004055	-0.000811	0.001867			
16590	10269251	9.802051	0.260350	-0.103475	-0.004032	-0.004056	-0.004433	113.169769	-88.228668	27.898481
16591	10269276	9.814344	0.289068	-0.147649	-0.006405	-0.003703	-0.000516			
16592	10269301	9.802776	0.296448	-0.139830	-0.003293	0.001456	-0.000370			
16593	10269326	9.820027	0.284687	-0.133702	-0.007166	0.002360	-0.000542			
16594	10269351	9.788486	0.282090	-0.111513	-0.005965	0.000630	-0.003567	113.165092	-88.229225	27.902443
16595	10269376	9.812252	0.259507	-0.135125	-0.007169	-0.001718	-0.001854			
16596	10269401	9.823084	0.279891	-0.157645	-0.008541	0.003302	-0.002015			
16597	10269426	9.804384	0.282258	-0.139893	-0.004549	-0.001611	-0.002627			
16598	10269451	9.809956	0.276570	-0.105374	-0.004637	-0.000833	-0.004035	113.155945	-88.229332	27.909950
16599	10269476	9.798368	0.265474	-0.135589	-0.005983	-0.002857	-0.001150			
16600	10269501	9.798000	0.256928	-0.135492	-0.006722	0.000361	-0.002418			
16601	10269526	9.809134	0.281815	-0.138520	-0.005418	-0.004725	-0.002769			
16602	10269551	9.821360	0.274704	-0.098261	-0.007640	-0.000820	-0.001526	113.183060	-88.228561	27.882381
16603	10269576	9.808749	0.302915	-0.118799	-0.005503	0.000045	-0.007166			
16604	10269601	9.798492	0.299901	-0.148492	-0.001003	-0.000709	-0.005576			
16605	10269626	9.826321	0.282094	-0.145241	-0.005431	-0.000003	0.000200			
16606	10269651	9.799102	0.308297	-0.110212	-0.006205	-0.003959	-0.001799	113.184654	-88.228004	27.880491
16607	10269676	9.815828	0.275548	-0.129874	-0.006527	-0.001961	-0.002173			
16608	10269701	9.806257	0.284634	-0.140837	-0.006947	0.001389	-0.000550			
16609	10269726	9.792915	0.315529	-0.125028	-0.008768	-0.004004	-0.001341			
16610	10269751	9.789740	0.306607	-0.133628	-0.006001	-0.004087	0.000058	113.221161	-88.228119	27.842657
16611	10269776	9.800813	0.270636	-0.156119	-0.007156	-0.000300	-0.004539			
16612	10269801	9.804461	0.278052	-0.144674	-0.002025	0.001341	-0.004922			
16613	10269826	9.795475	0.295027	-0.112061	-0.007017	-0.002819	-0.005829			
16614	10269851	9.780814	0.290719	-0.120605	-0.004108	0.000335	-0.005943	113.196075	-88.226234	27.867390
16615	10269876	9.780900	0.327397	-0.131564	-0.002496	0.004372	-0.004384			
16616	10269901	9.819658	0.245160	-0.149034	-0.005057	0.001867	-0.007214			
16617	10269926	9.810798	0.284126	-0.103455	-0.007515	0.001252	-0.002216			
16618	10269951	9.819381	0.283774	-0.103049	0.000052	-0.001395	-0.003016	113.147690	-88.226021	27.915758
16619	10269976	9.809242	0.269850	-0.132293	-0.002968	-0.003000	-0.001025			
16620	10270001	9.787189	0.286295	-0.140663	-0.002575	0.003020	-0.001508			
16621	10270026	9.819798	0.296892	-0.122166	-0.000456	0.004604	-0.004902			
16622	10270051	9.786092	0.289376	-0.123527	-0.007395	-0.000820	-0.002664	113.121712	-88.225906	27.942635
16623	10270076	9.791799	0.268125	-0.156584	-0.005175	-0.002201	-0.003771			
16624	10270101	9.779053	0.294527	-0.153619	-0.005844	0.002761	-0.003423			
16625	10270126	9.794147	0.293287	-0.125020	-0.002159	-0.004670	-0.004439			
16626	10270151	9.821169	0.296686	-0.110282	-0.005247	-0.003619	0.000384	113.142212	-88.225029	27.922422
16627	10270176	9.768358	0.305002	-0.137341	-0.007601	-0.004373	-0.002556			
16628	10270201	9.806360	0.276636	-0.141808	-0.006554	-0.001261	-0.005694			
16629	10270226	9.803389	0.274349	-0.119220	-0.004874	0.000647	-0.002417			
16630	10270251	9.793417	0.269866	-0.112929	-0.000887	0.004017	-0.003876	113.127472	-88.223923	27.937399
16631	10270276	9.814993	0.284668	-0.166846	-0.003025	-0.003518	-0.001734			
16632	10270301	9.794806	0.286888	-0.141307	-0.001426	-0.005235	-0.000913			
16633	10270326	9.808235	0.270189	-0.123569	-0.003108	0.001520	-0.001708			
16634	10270351	9.817529	0.277576	-0.099699	-0.004306	0.000195	-0.007865	113.144829	-88.222824	27.921564
16635	10270376	9.819939	0.290886	-0.132294	-0.006194	-0.002414	-0.004415			
16636	10270401	9.808887	0.296319	-0.128367	-0.001504	0.003754	0.000736			
16637	10270426	9.798573	0.277568	-0.117262	-0.002968	0.003009	-0.004651			
16638	10270451	9.818866	0.308669	-0.147627	0.000477	0.001065	-0.005375	113.105698	-88.222603	27.962156
16639	10270476	9.805904	0.283018	-0.157065	-0.001937	0.002830	-0.004463			
16640	10270501	9.808259	0.267824	-0.123165	-0.003906	-0.001729	-0.002491			
16641	10270526	9.832411	0.275614	-0.116505	-0.001603	0.000384	-0.002746			
16642	10270551	9.806832	0.276638	-0.141292	-0.003096	0.000936	-0.004600	113.078903	-88.222160	27.989750
16643	10270576	9.804243	0.287733	-0.130834	-0.004947	-0.002898	0.001612			
16644	10270601	9.796739	0.277165	-0.127415	-0.005615	-0.004202	0.001861			
16645	10270626	9.808254	0.294435	-0.097706	-0.004156	0.000282	-0.000943			
16646	10270651	9.829151	0.278143	-0.133256	-0.004365	0.000922	0.000854	113.118011	-88.223488	27.950708
16647	10270676	9.782030	0.285009	-0.152231	-0.001477	-0.000072	-0.005949			
16648	10270701	9.780838	0.337397	-0.141226	-0.006676	-0.000924	0.002334			
16649	10270726	9.799847	0.298681	-0.136468	-0.004566	0.003378	0.002155			
16650	10270751	9.810602	0.287756	-0.156627	-0.003201	0.004624	-0.001752	113.090538	-88.224586	27.978382
16651	10270776	9.829463	0.256480	-0.138588	-0.008859	-0.001501	-0.006716			
16652	10270801	9.771809	0.300467	-0.147429	-0.003754	-0.004628	-0.002889			
16653	10270826	9.785626	0.300113	-0.146041	-0.002514	-0.001182	-0.001337			
16654	10270851	9.804264	0.296151	-0.149513	-0.005078	-0.003101	-0.001600	113.119560	-88.223923	27.948492
16655	10270876	9.812432	0.279823	-0.127985	-0.008193	-0.006397	-0.006804			
16656	10270901	9.811941	0.270021	-0.106356	-0.004718	-0.000516	-0.005311			
16657	10270926	9.815351	0.304706	-0.111193	-0.007407	-0.002432	-0.003131			
16658	10270951	9.818307	0.272481	-0.139980	-0.003251	-0.002232	-0.002566	113.143646	-88.221832	27.923784
16659	10270976	9.785902	0.312364	-0.140735	-0.011121	-0.000228	0.000162			
16660	10271001	9.795041	0.304422	-0.137931	-0.003158	-0.001328	-0.005697			
16661	10271026	9.810035	0.284612	-0.136050	-0.003262	0.000297	-0.001653			
16662	10271051	9.814797	0.281226	-0.128415	-0.005360	0.001939	-0.001119	113.133461	-88.221611	27.933811
16663	10271076	9.804765	0.277153	-0.115933	-0.005548	-0.000723	-0.005174			
16664	10271101	9.806499	0.288985	-0.111605	-0.007781	-0.000764	-0.004917			
16665	10271126	9.820893	0.293317	-0.138072	-0.003053	-0.002417	-0.001986			
16666	10271151	9.827577	0.297803	-0.147688	-0.005423	-0.002328	0.000072	113.145256	-88.221169	27.921206
16667	10271176	9.810681	0.259629	-0.111621	-0.004390	-0.002769	-0.003976			
16668	10271201	9.827958	0.249875	-0.113586	-0.002667	0.003661	-0.003880			
16669	10271226	9.796524	0.288987	-0.115882	-0.003454	-0.000304	-0.007482			
16670	10271251	9.801285	0.298794	-0.134175	-0.001992	-0.004163	-0.008790	113.125580	-88.219193	27.941729
16671	10271276	9.805096	0.306568	-0.149965	-0.005513	-0.001357	-0.000562			
16672	10271301	9.807306	0.269741	-0.126896	-0.005558	0.004061	-0.001624			
16673	10271326	9.799649	0.266591	-0.115845	-0.007726	0.004031	0.000691			
16674	10271351	9.810770	0.279662	-0.089540	-0.005151	0.003424	-0.002269	113.083046	-88.220627	27.983002
16675	10271376	9.779111	0.317365	-0.131126	-0.011012	0.000283	-0.003034			
16676	10271401	9.792577	0.314926	-0.146059	-0.013520	-0.001316	-0.001697			
16677	10271426	9.786420	0.290923	-0.101922	-0.000483	-0.000438	-0.001402			
16678	10271451	9.814642	0.289165	-0.118362	-0.007160	-0.002104	-0.002810	113.088066	-88.219742	27.976707
16679	10271476	9.804734	0.280520	-0.117304	-0.004062	0.001240	-0.003950			
16680	10271501	9.814325	0.282227	-0.130807	-0.004910	0.001615	-0.004523			
16681	10271526	9.790225	0.287996	-0.097658	-0.008507	-0.001538	0.002590			
16682	10271551	9.822822	0.292366	-0.138994	-0.005175	0.000267	0.000598	113.078178	-88.220947	27.984961
16683	10271576	9.793804	0.286750	-0.132666	-0.007841	-0.002569	-0.000563			
16684	10271601	9.804476	0.306701	-0.127416	-0.007324	-0.000685	-0.000106			
16685	10271626	9.792397	0.275040	-0.112970	-0.003617	0.001320	-0.001447			
16686	10271651	9.785800	0.315540	-0.129225	-0.008918	0.000837	-0.002782	113.080475	-88.221504	27.981594
16687	10271676	9.791237	0.296550	-0.123061	-0.006244	-0.002930	-0.005247			
16688	10271701	9.793197	0.287901	-0.114899	-0.004037	0.000145	-0.003055			
16689	10271726	9.796069	0.282585	-0.106284	-0.002404	-0.000663	-0.002621			
16690	10271751	9.819945	0.276150	-0.103555	0.000706	-0.004034	-0.002007	113.097343	-88.220627	27.965530
16691	10271776	9.783852	0.305163	-0.102841	0.002778	0.001827	0.000013			
16692	10271801	9.800392	0.288096	-0.124000	-0.004865	0.002594	-0.001505			
16693	10271826	9.808249	0.278513	-0.142265	-0.003715	0.002550	-0.001572			
16694	10271851	9.818636	0.280896	-0.132263	-0.000961	0.000463	-0.001077	113.068443	-88.221062	27.997162
16695	10271876	9.812625	0.297648	-0.117845	-0.007388	0.003389	-0.000404			
16696	10271901	9.799778	0.261149	-0.123590	-0.007178	-0.002117	-0.008321			
16697	10271926	9.830664	0.269589	-0.129491	-0.006135	-0.000146	-0.002478			
16698	10271951	9.827301	0.272918	-0.131347	-0.005561	0.001928	-0.003558	113.035515	-88.220291	28.028952
16699	10271976	9.802847	0.291253	-0.141799	-0.004745	-0.003286	0.000769			
16700	10272001	9.796879	0.259939	-0.115879	-0.003253	-0.000162	-0.003511			
16701	10272026	9.782421	0.276916	-0.122045	-0.004515	-0.000563	-0.000873			
16702	10272051	9.798262	0.271122	-0.129802	-0.001778	-0.004207	-0.001875	113.068581	-88.220291	27.996519
16703	10272076	9.781101	0.305849	-0.119648	-0.003654	-0.001723	-0.004348			
16704	10272101	9.792346	0.288177	-0.130741	-0.001125	-0.003110	-0.007056			
16705	10272126	9.800575	0.269949	-0.114920	-0.007032	-0.000033	-0.002348			
16706	10272151	9.804707	0.288229	-0.127390	-0.001383	-0.000384	-0.002371	113.069893	-88.219299	27.995707
16707	10272176	9.815327	0.271607	-0.117925	-0.004975	-0.004394	-0.001413			
16708	10272201	9.810408	0.283424	-0.114954	-0.000687	-0.000510	-0.006728			
16709	10272226	9.770452	0.325361	-0.131654	-0.006135	-0.004548	-0.004677			
16710	10272251	9.819266	0.300101	-0.118411	-0.004129	-0.002822	-0.001085	113.105095	-88.217873	27.960674
16711	10272276	9.822786	0.299660	-0.148604	-0.007971	-0.000630	-0.000039			
16712	10272301	9.800045	0.290914	-0.150372	-0.004753	0.002718	-0.004388			
16713	10272326	9.797081	0.290127	-0.130699	-0.005721	0.002824	-0.006051			
16714	10272351	9.803083	0.304356	-0.128410	-0.000845	-0.003356	-0.002761	113.081863	-88.217430	27.983971
16715	10272376	9.823155	0.287685	-0.105998	-0.001481	-0.003822	-0.005716			
16716	10272401	9.804050	0.273303	-0.145615	-0.009480	-0.001498	-0.001454			
16717	10272426	9.796211	0.287423	-0.138316	-0.009902	0.003462	-0.006811			
16718	10272451	9.819475	0.283563	-0.119332	-0.007682	0.002080	-0.004514	113.054138	-88.216118	28.010452
16719	10272476	9.826787	0.260595	-0.100187	-0.001441	0.001025	-0.006209			
16720	10272501	9.809465	0.296559	-0.144173	-0.009821	0.003543	0.000310			
16721	10272526	9.816005	0.302769	-0.136576	-0.006825	-0.000618	-0.005305			
16722	10272551	9.818874	0.299341	-0.129905	-0.006333	-0.001769	-0.001140	113.030190	-88.215675	28.033773
16723	10272576	9.814442	0.284489	-0.155730	-0.009313	0.001152	-0.000414			
16724	10272601	9.789854	0.298614	-0.134110	-0.005504	-0.006218	-0.006039			
16725	10272626	9.772756	0.289647	-0.125391	-0.010535	-0.002286	0.001185			
16726	10272651	9.823412	0.265787	-0.104485	-0.002974	-0.000733	-0.000122	113.060326	-88.215790	28.002182
16727	10272676	9.821984	0.269238	-0.110747	-0.005502	-0.002146	-0.004481			
16728	10272701	9.794709	0.288089	-0.127402	-0.002652	-0.002863	-0.001988			
16729	10272726	9.807360	0.297974	-0.114501	0.001498	-0.002399	0.000054			
16730	10272751	9.816138	0.254838	-0.138511	-0.004117	-0.001146	-0.001335	113.091461	-88.215240	27.972240
16731	10272776	9.809078	0.270817	-0.105808	-0.004171	0.003128	0.000416			
16732	10272801	9.802590	0.277614	-0.149988	-0.004458	-0.004452	-0.000644			
16733	10272826	9.791510	0.280534	-0.135546	-0.002797	-0.002214	0.000586			
16734	10272851	9.800861	0.284699	-0.116354	-0.003700	0.001833	-0.001320	113.104980	-88.216446	27.958946
16735	10272876	9.795989	0.293168	-0.115359	-0.001024	0.000198	-0.005187			
16736	10272901	9.804094	0.292311	-0.115426	-0.003251	0.000098	-0.000368			
16737	10272926	9.797873	0.266465	-0.134557	-0.006048	0.000815	-0.005868			
16738	10272951	9.812721	0.289594	-0.117924	-0.006297	-0.005125	-0.002311	113.105263	-88.215675	27.959101
16739	10272976	9.805143	0.291028	-0.126991	-0.001244	-0.004777	0.001137			
16740	10273001	9.820395	0.289381	-0.127041	-0.003484	-0.000812	-0.001654			
16741	10273026	9.810901	0.275572	-0.101994	-0.001246	0.003423	-0.002991			
16742	10273051	9.804969	0.304842	-0.126872	-0.003929	0.003119	-0.003365	113.098000	-88.215569	27.967899
16743	10273076	9.814077	0.311971	-0.151396	-0.001535	0.002390	-0.002411			
16744	10273101	9.820704	0.280349	-0.157212	-0.006934	-0.001134	-0.002486			
16745	10273126	9.802816	0.291665	-0.137038	-0.005183	-0.001876	-0.001459			
16746	10273151	9.789237	0.269113	-0.130212	-0.004645	-0.000833	-0.004475	113.092323	-88.215462	27.973568
16747	10273176	9.795615	0.300722	-0.145628	-0.004262	-0.002639	-0.002299			
16748	10273201	9.805405	0.278993	-0.145642	-0.001800	-0.001422	-0.000511			
16749	10273226	9.783326	0.281229	-0.122993	-0.004192	-0.002761	0.000192			
16750	10273251	9.807033	0.282691	-0.107753	-0.002035	0.002390	0.000606	113.115707	-88.216003	27.950729
16751	10273276	9.817280	0.302916	-0.112615	-0.009762	0.001010	-0.004967			
16752	10273301	9.823212	0.292711	-0.126076	-0.007702	-0.001211	-0.003251			
16753	10273326	9.796860	0.268746	-0.129766	0.000599	0.001195	-0.006592			
16754	10273351	9.798066	0.292613	-0.141719	-0.008251	0.002079	-0.002393	113.078468	-88.215019	27.987247
16755	10273376	9.815814	0.276494	-0.128926	-0.007607	-0.001723	0.001557			
16756	10273401	9.796844	0.302165	-0.116833	-0.001140	-0.002059	-0.001408			
16757	10273426	9.796697	0.276575	-0.118707	-0.010419	0.001979	-0.000271			
16758	10273451	9.795003	0.295990	-0.115390	-0.008300	-0.000311	-0.001574	113.089912	-88.216560	27.973516
16759	10273476	9.792945	0.311744	-0.122077	-0.005908	0.000758	-0.003818			
16760	10273501	9.781162	0.308035	-0.135897	-0.003092	0.002876	-0.004776			
16761	10273526	9.793639	0.296176	-0.125004	-0.008351	-0.003232	-0.006014			
16762	10273551	9.802551	0.306686	-0.125568	-0.006011	-0.006221	-0.003406	113.089699	-88.214584	27.973740
16763	10273576	9.799817	0.293730	-0.118266	-0.003760	-0.000301	-0.003064			
16764	10273601	9.804641	0.291474	-0.123615	-0.006756	-0.000739	-0.002411			
16765	10273626	9.811555	0.273109	-0.126427	-0.004351	0.002338	-0.002861			
16766	10273651	9.815185	0.293750	-0.139450	-0.002806	-0.000280	-0.002877	113.072891	-88.214363	27.990261
16767	10273676	9.785156	0.297707	-0.143068	-0.008704	0.004394	-0.003277			
16768	10273701	9.830374	0.257342	-0.135198	-0.003861	0.002930	-0.002085			
16769	10273726	9.839445	0.283721	-0.116075	-0.006694	0.001460	-0.000036			
16770	10273751	9.837132	0.275991	-0.109408	-0.002159	-0.004081	0.000119	113.050804	-88.215019	28.012043
16771	10273776	9.814178	0.291136	-0.126011	-0.005613	-0.000197	-0.001007			
16772	10273801	9.798280	0.262875	-0.115859	-0.006722	0.002037	-0.005284			
16773	10273826	9.784807	0.283412	-0.134982	-0.005181	-0.002138	-0.005694			
16774	10273851	9.805610	0.289144	-0.122617	-0.005619	0.001600	-0.005609	113.020340	-88.214363	28.041307
16775	10273876	9.778422	0.301400	-0.140245	0.000517	-0.002231	-0.005971			
16776	10273901	9.788413	0.271899	-0.156554	-0.003192	-0.000167	-0.005567			
16777	10273926	9.812051	0.280500	-0.144683	-0.002059	0.002900	-0.001448			
16778	10273951	9.801261	0.294771	-0.125058	-0.004926	-0.003614	0.000452	113.020218	-88.213379	28.043282
16779	10273976	9.834700	0.293942	-0.136205	-0.007311	-0.001267	-0.002165			
16780	10274001	9.814109	0.274599	-0.158180	-0.003493	-0.003080	-0.004810			
16781	10274026	9.812905	0.269453	-0.106393	-0.002287	-0.001948	0.001799			
16782	10274051	9.791988	0.265408	-0.105782	-0.001164	-0.001088	0.000966	113.052498	-88.213158	28.011944
16783	10274076	9.777164	0.278316	-0.122474	-0.006221	0.000627	-0.000805			
16784	10274101	9.805700	0.281975	-0.121181	-0.002737	-0.000285	-0.003259			
16785	10274126	9.789139	0.316093	-0.131690	-0.003946	-0.000368	-0.000814			
16786	10274151	9.792911	0.280480	-0.129780	-0.008366	-0.002313	0.000404	113.061272	-88.213921	28.002106
16787	10274176	9.827036	0.263666	-0.147629	-0.007877	0.002211	-0.001310			
16788	10274201	9.791253	0.301965	-0.137887	-0.006314	-0.000344	-0.002418			
16789	10274226	9.818144	0.278954	-0.126517	-0.007281	-0.000697	-0.007352			
16790	10274251	9.804169	0.296422	-0.133688	-0.005570	-0.002147	-0.004859	113.043610	-88.212830	28.018608
16791	10274276	9.787705	0.293294	-0.163321	-0.005780	-0.001305	-0.003187			
16792	10274301	9.788224	0.300992	-0.106770	-0.001495	-0.002974	-0.001222			
16793	10274326	9.803586	0.274831	-0.151397	-0.006127	-0.000469	-0.002094			
16794	10274351	9.816337	0.275632	-0.135179	-0.005442	-0.001681	-0.000496	113.065514	-88.212502	27.996979
16795	10274376	9.823182	0.264463	-0.140475	-0.005613	-0.002530	-0.003198			
16796	10274401	9.826348	0.281251	-0.148603	-0.006758	-0.000547	-0.002098			
16797	10274426	9.794551	0.292597	-0.112982	-0.001241	0.001360	-0.000370			
16798	10274451	9.797056	0.278691	-0.104879	-0.005201	-0.000833	0.002329	113.078110	-88.213379	27.984112
16799	10274476	9.798477	0.297373	-0.140372	-0.001998	-0.003111	0.000057			
16800	10274501	9.822434	0.285273	-0.138487	-0.003406	0.000809	0.000082			
16801	10274526	9.807934	0.283690	-0.102457	-0.008769	0.003996	-0.007513			
16802	10274551	9.805590	0.287139	-0.115470	-0.009203	-0.002603	-0.006908	113.063385	-88.212608	27.998495
16803	10274576	9.798300	0.267768	-0.128755	-0.004406	0.004147	-0.003102			
16804	10274601	9.785943	0.272552	-0.142671	-0.002146	-0.002532	-0.000125			
16805	10274626	9.812665	0.292349	-0.113584	-0.010175	-0.001830	-0.000358			
16806	10274651	9.819977	0.285585	-0.128463	-0.006533	-0.001770	-0.002168	113.068207	-88.212830	27.993168
16807	10274676	9.803025	0.310136	-0.133150	-0.005689	0.002055	-0.002658			
16808	10274701	9.786348	0.275815	-0.137861	-0.004503	0.001045	-0.002153			
16809	10274726	9.805815	0.275451	-0.127353	-0.004236	0.002728	-0.003818			
16810	10274751	9.811444	0.278220	-0.120237	-0.005063	0.002651	-0.001055	113.022110	-88.213379	28.039038
16811	10274776	9.809669	0.278498	-0.142305	0.000405	0.000048	0.003339			
16812	10274801	9.817554	0.286897	-0.122255	-0.005102	-0.002588	-0.003649			
16813	10274826	9.796614	0.276843	-0.106336	-0.007296	-0.003651	0.001162			
16814	10274851	9.790248	0.294430	-0.112441	-0.003874	0.001711	-0.000228	113.050232	-88.213921	28.011744
16815	10274876	9.819651	0.277620	-0.138005	-0.006051	0.001667	0.001059			
16816	10274901	9.811110	0.281008	-0.148007	-0.005318	0.002651	-0.000477			
16817	10274926	9.793579	0.302308	-0.127821	-0.002755	0.002629	-0.001891			
16818	10274951	9.805742	0.308348	-0.105833	-0.002873	0.001912	-0.003436	113.011795	-88.215347	28.049871
16819	10274976	9.789881	0.296691	-0.134566	-0.005196	-0.003424	-0.001985			
16820	10275001	9.809629	0.275035	-0.128392	-0.003938	0.001182	-0.002672			
16821	10275026	9.808472	0.276920	-0.099143	-0.004953	0.000970	-0.003694			
16822	10275051	9.812428	0.285617	-0.139425	0.000797	-0.000148	0.001800	113.014374	-88.215790	28.048100
16823	10275076	9.783869	0.318383	-0.131173	-0.005277	-0.002651	0.000842			
16824	10275101	9.813152	0.265731	-0.139385	-0.005735	0.001544	-0.001447			
16825	10275126	9.813351	0.285067	-0.133711	0.000125	-0.001194	0.000647			
16826	10275151	9.791305	0.294183	-0.128314	-0.003205	-0.001183	0.003025	113.042526	-88.217545	28.019787
16827	10275176	9.797464	0.302577	-0.141743	-0.002289	0.001989	-0.001191			
16828	10275201	9.826240	0.290229	-0.148153	-0.003396	0.000156	-0.003186			
16829	10275226	9.809387	0.289994	-0.119352	-0.004517	-0.004245	0.003010			
16830	10275251	9.821479	0.284320	-0.137010	-0.008973	0.004712	-0.003281	113.031281	-88.217873	28.031368
16831	10275276	9.841540	0.285679	-0.148712	-0.000373	-0.002119	-0.001673			
16832	10275301	9.789952	0.284644	-0.121565	-0.005554	-0.000204	-0.003442			
16833	10275326	9.794842	0.275223	-0.122593	-0.004861	-0.002000	-0.002298			
16834	10275351	9.805146	0.292577	-0.130293	-0.001414	0.000319	-0.004670	113.034752	-88.217323	28.028782
16835	10275376	9.818898	0.295474	-0.125110	-0.002240	-0.001758	-0.001732			
16836	10275401	9.805259	0.290863	-0.146591	-0.003769	-0.002043	-0.002044			
16837	10275426	9.801753	0.282016	-0.099603	-0.005527	0.001161	0.001186			
16838	10275451	9.836485	0.252768	-0.111784	-0.000897	-0.001535	0.001344	113.058830	-88.217979	28.006084
16839	10275476	9.823883	0.287399	-0.147184	-0.005151	-0.003174	-0.005640			
16840	10275501	9.808008	0.291600	-0.130273	-0.001189	0.001623	-0.001775			
16841	10275526	9.800723	0.260101	-0.119255	-0.006700	-0.000808	-0.004722			
16842	10275551	9.809516	0.275673	-0.110639	-0.004163	0.002538	-0.001702	113.041138	-88.217323	28.024239
16843	10275576	9.788889	0.297045	-0.128757	-0.000024	0.001259	-0.000940			
16844	10275601	9.764626	0.298831	-0.138246	-0.001839	-0.002462	-0.004233			
16845	10275626	9.800027	0.288913	-0.142234	-0.002703	0.002618	-0.004715			
16846	10275651	9.810069	0.277815	-0.126012	-0.003205	-0.001846	-0.004737	113.025520	-88.216331	28.041878
16847	10275676	9.795078	0.297687	-0.130719	0.000338	-0.000226	-0.003332			
16848	10275701	9.828745	0.278370	-0.145280	-0.000757	-0.000255	-0.003074			
16849	10275726	9.801236	0.269922	-0.146174	-0.005077	-0.007167	0.000942			
16850	10275751	9.802925	0.283592	-0.139388	-0.006466	0.000435	-0.000611	113.053307	-88.216667	28.014561
16851	10275776	9.805451	0.300936	-0.119787	-0.004609	-0.001808	-0.002554			
16852	10275801	9.831494	0.274620	-0.118475	-0.006111	-0.002788	0.001159			
16853	10275826	9.811317	0.282792	-0.108797	-0.004792	-0.001869	-0.000824			
16854	10275851	9.814663	0.287793	-0.119401	-0.005604	-0.003117	-0.004929	113.087929	-88.216446	27.979572
16855	10275876	9.800312	0.297683	-0.129866	-0.006098	-0.005506	-0.001608			
16856	10275901	9.803289	0.288731	-0.131200	-0.006351	0.002821	-0.002591			
16857	10275926	9.804909	0.272137	-0.128795	-0.005326	0.004645	-0.005275			
16858	10275951	9.813558	0.273931	-0.144163	-0.008275	0.004721	-0.005203	113.039314	-88.216446	28.026421
16859	10275976	9.793052	0.303622	-0.124942	-0.006463	0.002767	0.002672			
16860	10276001	9.811546	0.271081	-0.122187	-0.007895	-0.000621	0.003298			
16861	10276026	9.802124	0.264975	-0.126412	-0.007291	0.001895	-0.004645			
16862	10276051	9.828565	0.281325	-0.120825	-0.009447	-0.000793	-0.003886	113.027260	-88.217102	28.037380
16863	10276076	9.791194	0.305722	-0.134566	-0.005387	-0.001489	-0.001778			
16864	10276101	9.800999	0.287449	-0.143200	-0.005190	0.000584	-0.002094			
16865	10276126	9.815112	0.280328	-0.099729	-0.004174	-0.005414	-0.001232			
16866	10276151	9.800426	0.291659	-0.136041	-0.006773	-0.000423	-0.004336	113.046280	-88.216331	28.018373
16867	10276176	9.817248	0.283405	-0.145265	-0.007190	-0.002748	0.001936			
16868	10276201	9.815401	0.279089	-0.144713	-0.006042	0.001347	-0.000483			
16869	10276226	9.820062	0.270579	-0.109743	-0.003532	0.000675	-0.001074			
16870	10276251	9.780929	0.284588	-0.125362	-0.003095	-0.001125	-0.004095	113.054420	-88.217323	28.009718
16871	10276276	9.829717	0.274059	-0.139945	-0.013933	0.005460	-0.004034			
16872	10276301	9.816533	0.289142	-0.116856	-0.005607	0.005874	-0.001164			
16873	10276326	9.786743	0.275573	-0.123959	-0.003429	0.001651	-0.001061			
16874	10276351	9.806291	0.304122	-0.108260	-0.003061	-0.000100	-0.003900	112.988457	-88.217430	28.075220
16875	10276376	9.828274	0.275910	-0.141891	-0.001109	0.001106	-0.001201			
16876	10276401	9.829193	0.278320	-0.140531	-0.001788	-0.002277	-0.005896			
16877	10276426	9.789209	0.294263	-0.099040	0.001650	-0.000976	-0.002243			
16878	10276451	9.783605	0.306263	-0.141708	0.002854	-0.001027	-0.004752	112.986389	-88.217102	28.079401
16879	10276476	9.819290	0.276001	-0.151940	-0.002745	-0.000161	-0.004414			
16880	10276501	9.814598	0.287117	-0.108748	-0.002354	0.001658	-0.005624			
16881	10276526	9.824162	0.277534	-0.095836	-0.004812	0.002851	-0.000544			
16882	10276551	9.816052	0.293064	-0.123124	-0.006939	0.000799	-0.006709	112.941940	-88.216118	28.124098
16883	10276576	9.822308	0.281520	-0.109796	-0.007734	-0.002113	-0.001909			
16884	10276601	9.798368	0.290264	-0.108191	-0.007315	0.000668	-0.004588			
16885	10276626	9.812023	0.271154	-0.121272	-0.004949	-0.005493	-0.004113			
16886	10276651	9.798612	0.276149	-0.121089	-0.004597	0.004414	0.000045	112.940727	-88.215462	28.124779
16887	10276676	9.805650	0.277895	-0.107363	-0.009349	-0.003298	0.002775			
16888	10276701	9.818372	0.297333	-0.122715	-0.004748	-0.003359	-0.001922			
16889	10276726	9.798208	0.276826	-0.131691	-0.006019	0.000046	-0.004464			
16890	10276751	9.803274	0.295547	-0.140788	-0.011322	0.001758	-0.003864	112.953461	-88.215240	28.110598
16891	10276776	9.811025	0.283264	-0.139434	-0.002930	-0.000350	-0.003065			
16892	10276801	9.815814	0.279972	-0.137515	-0.001927	0.002579	-0.000811			
16893	10276826	9.776817	0.267831	-0.121099	-0.003269	-0.003777	-0.000836			
16894	10276851	9.808933	0.254603	-0.127893	-0.005643	0.002575	-0.003168	112.942986	-88.215462	28.121819
16895	10276876	9.812680	0.300333	-0.134142	-0.002211	0.001338	-0.004730			
16896	10276901	9.800914	0.286289	-0.126906	-0.000685	0.001624	-0.004213			
16897	10276926	9.796807	0.311405	-0.130232	-0.002585	0.001079	-0.003381			
16898	10276951	9.795568	0.292765	-0.122614	-0.006728	-0.001705	-0.001328	112.916794	-88.215569	28.148214
16899	10276976	9.818006	0.261106	-0.145189	-0.011857	0.000983	0.000815			
16900	10277001	9.813293	0.285947	-0.125140	-0.001572	-0.002721	-0.002630			
16901	10277026	9.837477	0.255887	-0.125632	-0.006591	0.002107	-0.002277			
16902	10277051	9.789340	0.294534	-0.120611	-0.002614	0.000112	-0.001074	112.912018	-88.216003	28.152424
16903	10277076	9.802964	0.275439	-0.128394	-0.008337	-0.001679	-0.004981			
16904	10277101	9.802053	0.276974	-0.138888	-0.003195	0.000033	-0.002998			
16905	10277126	9.781508	0.289548	-0.076529	-0.006245	-0.000797	-0.002411			
16906	10277151	9.795596	0.288460	-0.119258	-0.003493	-0.005017	-0.004241	112.924889	-88.214691	28.139481
16907	10277176	9.798265	0.307128	-0.126384	-0.001353	0.002711	-0.001834			
16908	10277201	9.812890	0.290029	-0.146662	-0.004928	-0.001803	-0.001590			
16909	10277226	9.815070	0.291022	-0.115478	-0.004919	-0.000128	-0.003701			
16910	10277251	9.813434	0.274975	-0.125556	-0.004260	-0.002500	0.001222	112.928970	-88.215569	28.135187
16911	10277276	9.816377	0.280677	-0.151900	-0.001708	0.001742	-0.002097			
16912	10277301	9.820890	0.285481	-0.121682	-0.005466	0.003287	-0.002532			
16913	10277326	9.824632	0.292230	-0.123744	-0.005879	-0.002085	-0.001141			
16914	10277351	9.821014	0.276983	-0.123663	-0.006025	-0.001439	-0.001399	112.917343	-88.215569	28.147654
16915	10277376	9.829998	0.284749	-0.129909	-0.001632	0.001615	0.000273			
16916	10277401	9.827635	0.274992	-0.111256	-0.004934	-0.001745	-0.003840			
16917	10277426	9.815727	0.289025	-0.139904	-0.009821	-0.000793	-0.001898			
16918	10277451	9.784675	0.291761	-0.130230	-0.009537	-0.001493	0.000991	112.926491	-88.215897	28.137508
16919	10277476	9.801833	0.296935	-0.141738	-0.006236	0.001338	-0.002216			
16920	10277501	9.810242	0.304035	-0.130319	-0.004482	-0.001808	-0.004226			
16921	10277526	9.808558	0.285493	-0.128433	-0.004396	-0.002904	-0.005703			
16922	10277551	9.789223	0.308420	-0.130191	-0.003697	0.002231	0.000224	112.916924	-88.215569	28.147032
16923	10277576	9.812355	0.293781	-0.144709	-0.001732	0.000644	0.000465			
16924	10277601	9.809923	0.295574	-0.139391	-0.003247	0.001846	-0.000934			
16925	10277626	9.803123	0.298581	-0.123052	-0.005420	0.003807	-0.002520			
16926	10277651	9.818515	0.286894	-0.126477	-0.004491	0.003186	0.002027	112.883026	-88.216667	28.181850
16927	10277676	9.808604	0.288053	-0.143229	-0.007024	0.001773	-0.002401			
16928	10277701	9.834192	0.293379	-0.130971	-0.005928	-0.004603	-0.000839			
16929	10277726	9.812619	0.294739	-0.111677	-0.003137	-0.004037	-0.003850			
16930	10277751	9.805272	0.281136	-0.127904	-0.005938	-0.002281	-0.002556	112.911652	-88.216331	28.152685
16931	10277776	9.795464	0.305766	-0.133072	-0.001398	0.004140	-0.001442			
16932	10277801	9.798306	0.263914	-0.121173	-0.001910	-0.002602	-0.007379			
16933	10277826	9.778486	0.282459	-0.112420	-0.011522	-0.001793	-0.002988			
16934	10277851	9.775548	0.297867	-0.130690	-0.006205	-0.003894	-0.000826	112.913498	-88.215790	28.150040
16935	10277876	9.799528	0.279582	-0.120678	-0.002943	-0.000165	-0.007750			
16936	10277901	9.835182	0.279748	-0.109828	-0.006109	0.001279	-0.001122			
16937	10277926	9.818292	0.266969	-0.126060	-0.002368	-0.001624	0.000776			
16938	10277951	9.775050	0.291883	-0.114820	-0.004615	-0.001276	0.001301	112.916985	-88.215569	28.147280
16939	10277976	9.798840	0.295121	-0.117346	-0.004956	-0.002906	-0.002624			
16940	10278001	9.799727	0.305207	-0.127399	-0.002138	-0.001045	-0.002939			
16941	10278026	9.795335	0.272440	-0.122589	-0.002120	0.000173	-0.004792			
16942	10278051	9.803411	0.274378	-0.122210	-0.003278	-0.005530	-0.002895	112.941040	-88.214691	28.123854
16943	10278076	9.820978	0.288137	-0.141862	-0.008175	-0.000374	-0.002159			
16944	10278101	9.795991	0.308875	-0.148919	-0.004841	0.001423	-0.004204			
16945	10278126	9.781440	0.288148	-0.139769	-0.004293	-0.001930	-0.005825			
16946	10278151	9.809071	0.284600	-0.134635	-0.002988	0.001848	-0.000678	112.920410	-88.214584	28.143709
16947	10278176	9.804307	0.282527	-0.129309	-0.004055	0.000994	-0.001453			
16948	10278201	9.832820	0.292991	-0.139097	-0.009261	-0.002591	-0.002484			
16949	10278226	9.785748	0.317394	-0.125399	-0.005324	0.000441	-0.006710			
16950	10278251	9.793872	0.288378	-0.147450	-0.006336	0.002500	-0.001307	112.899918	-88.214249	28.163136
16951	10278276	9.818562	0.287602	-0.134211	-0.002594	-0.001000	-0.005698			
16952	10278301	9.774680	0.289744	-0.129156	-0.004822	0.003307	0.000809			
16953	10278326	9.810676	0.280173	-0.151924	-0.006461	-0.004229	-0.004807			
16954	10278351	9.794571	0.295121	-0.119677	-0.005397	0.000699	-0.005297	112.886108	-88.212936	28.177673
16955	10278376	9.788815	0.298892	-0.122067	-0.001042	0.000840	-0.003320			
16956	10278401	9.806256	0.311312	-0.117376	-0.002316	0.000568	-0.002542			
16957	10278426	9.812568	0.272309	-0.135116	-0.000390	0.000541	-0.001910			
16958	10278451	9.796704	0.276215	-0.120205	-0.004984	-0.000393	-0.005813	112.864136	-88.212395	28.200905
16959	10278476	9.810521	0.283698	-0.134132	-0.002113	0.000043	-0.006916			
16960	10278501	9.815599	0.262476	-0.143266	-0.005636	0.002515	-0.000927			
16961	10278526	9.796751	0.311710	-0.121592	-0.003633	0.002360	0.000478			
16962	10278551	9.787377	0.301759	-0.126357	-0.005297	0.001739	-0.003043	112.824883	-88.212608	28.240772
16963	10278576	9.817822	0.272851	-0.139407	-0.004907	0.004084	0.000620			
16964	10278601	9.795527	0.293199	-0.117745	-0.006488	0.005080	-0.003728			
16965	10278626	9.791056	0.277224	-0.131679	-0.007226	-0.002173	-0.004150			
16966	10278651	9.774789	0.290058	-0.145449	-0.002061	0.002566	-0.005490	112.768707	-88.213051	28.296041
16967	10278676	9.791318	0.295309	-0.134038	-0.009374	-0.000985	-0.004911			
16968	10278701	9.803211	0.285068	-0.111015	-0.006431	0.005603	-0.001995			
16969	10278726	9.838295	0.265276	-0.121845	-0.002643	0.001083	-0.000174			
16970	10278751	9.798871	0.303023	-0.137399	-0.005232	0.003806	-0.003549	112.716827	-88.212723	28.348104
16971	10278776	9.830077	0.284965	-0.142957	-0.005950	-0.006281	-0.002386			
16972	10278801	9.811336	0.285743	-0.116403	-0.006029	-0.001176	-0.000821			
16973	10278826	9.806815	0.301299	-0.110182	-0.000761	-0.000127	-0.004032			
16974	10278851	9.811762	0.297454	-0.133170	-0.004563	0.000779	-0.004919	112.731750	-88.211845	28.333605
16975	10278876	9.806934	0.272428	-0.150868	-0.004481	0.002669	0.001319			
16976	10278901	9.820056	0.275446	-0.119809	-0.001122	-0.000440	0.000198			
16977	10278926	9.818798	0.271039	-0.138964	-0.003660	0.000799	-0.000881			
16978	10278951	9.785514	0.304738	-0.138868	0.000343	-0.002488	-0.000386	112.738106	-88.213814	28.327929
16979	10278976	9.779732	0.292226	-0.101962	-0.003634	-0.006047	0.000693			
16980	10279001	9.778447	0.288693	-0.120064	-0.002582	0.003476	0.000614			
16981	10279026	9.819986	0.271118	-0.178777	-0.005250	0.000650	0.002272			
16982	10279051	9.816064	0.293192	-0.127432	-0.003771	0.003891	-0.007592	112.730164	-88.214691	28.335546
16983	10279076	9.801982	0.313747	-0.125036	-0.008029	-0.000888	-0.001831			
16984	10279101	9.816675	0.287614	-0.138497	-0.007863	0.000012	-0.002730			
16985	10279126	9.780258	0.301254	-0.129190	-0.003362	0.003453	-0.002143			
16986	10279151	9.807343	0.295998	-0.106827	-0.005497	0.000188	-0.000231	112.712616	-88.215019	28.352453
16987	10279176	9.801144	0.296380	-0.107730	-0.005640	-0.001422	-0.000241			
16988	10279201	9.823437	0.282000	-0.142336	-0.004822	0.003242	0.000617			
16989	10279226	9.805896	0.297879	-0.109174	-0.005288	0.003880	-0.000852			
16990	10279251	9.786219	0.283805	-0.133535	-0.003321	0.000288	-0.000818	112.692238	-88.216225	28.372955
16991	10279276	9.786222	0.287265	-0.141264	-0.004598	-0.004064	-0.001158			
16992	10279301	9.816207	0.283156	-0.128826	-0.007387	0.007455	-0.002497			
16993	10279326	9.823136	0.300756	-0.131745	-0.003013	0.005218	0.003827			
16994	10279351	9.795414	0.301178	-0.114469	-0.003280	-0.001261	-0.001015	112.666656	-88.217873	28.398336
16995	10279376	9.795292	0.290853	-0.150930	-0.009643	-0.004865	-0.004478			
16996	10279401	9.817616	0.282183	-0.123638	-0.002968	-0.001065	-0.003971			
16997	10279426	9.801549	0.300671	-0.105346	-0.006641	0.003912	-0.001937			
16998	10279451	9.802074	0.277490	-0.143656	-0.004326	0.003898	0.000297	112.647728	-88.217430	28.417162
16999	10279476	9.798892	0.292849	-0.121150	-0.007352	0.001566	-0.006951			
17000	10279501	9.804962	0.290110	-0.095288	-0.004792	-0.000058	-0.001265			
17001	10279526	9.825234	0.291047	-0.141462	-0.000432	-0.004247	-0.000396			
17002	10279551	9.795146	0.301246	-0.148474	-0.002883	-0.001515	-0.001594	112.655083	-88.217102	28.410030
17003	10279576	9.820101	0.269265	-0.115013	-0.003687	0.001380	-0.004144			
17004	10279601	9.796982	0.287402	-0.109627	-0.006421	-0.000994	-0.001650			
17005	10279626	9.811108	0.270718	-0.126957	-0.009300	0.000767	-0.001307			
17006	10279651	9.806519	0.298322	-0.134646	-0.003433	-0.000554	-0.001909	112.643181	-88.217102	28.421270
17007	10279676	9.819415	0.280942	-0.104522	-0.002201	-0.001243	-0.003457			
17008	10279701	9.820217	0.265131	-0.126004	-0.005285	0.001554	-0.001065			
17009	10279726	9.803872	0.294410	-0.160926	-0.002253	0.002633	-0.003819			
17010	10279751	9.786250	0.305130	-0.104347	-0.002553	-0.001432	0.002387	112.634315	-88.217651	28.430958
17011	10279776	9.804285	0.313559	-0.112038	-0.003561	0.002106	0.000416			
17012	10279801	9.816587	0.291251	-0.131341	-0.003473	-0.000939	0.000592			
17013	10279826	9.815538	0.292035	-0.115020	-0.003920	-0.001605	-0.007559			
17014	10279851	9.805428	0.302820	-0.119761	-0.004461	0.001690	-0.002789	112.620354	-88.217545	28.445776
17015	10279876	9.806000	0.266133	-0.138916	-0.006317	-0.000226	-0.002740			
17016	10279901	9.806888	0.304382	-0.128877	-0.002459	0.001398	-0.001386			
17017	10279926	9.816172	0.280616	-0.119301	-0.001912	0.002511	0.000599			
17018	10279951	9.817630	0.270900	-0.104924	-0.003079	0.001067	0.000407	112.602165	-88.218536	28.464817
17019	10279976	9.818684	0.284460	-0.148563	-0.004891	0.001155	-0.002478			
17020	10280001	9.769815	0.297236	-0.126282	-0.001298	-0.000907	-0.000697			
17021	10280026	9.822890	0.269115	-0.103548	-0.006823	-0.000562	-0.004795			
17022	10280051	9.800818	0.268142	-0.151418	-0.003353	-0.005148	-0.003283	112.613136	-88.217979	28.454100
17023	10280076	9.817973	0.291663	-0.126037	-0.002626	0.002946	0.001249			
17024	10280101	9.805316	0.283652	-0.139863	-0.007384	0.001447	-0.000609			
17025	10280126	9.797494	0.319584	-0.104842	-0.003783	0.000732	-0.001970			
17026	10280151	9.802681	0.298239	-0.128391	-0.007872	-0.004007	-0.006022	112.602203	-88.218208	28.464725
17027	10280176	9.811865	0.282504	-0.119706	-0.003873	0.005633	-0.003418			
17028	10280201	9.803991	0.293509	-0.101052	-0.000203	0.000796	-0.001594			
17029	10280226	9.828310	0.277464	-0.149095	-0.005071	-0.001104	-0.001788			
17030	10280251	9.794209	0.284651	-0.118741	-0.006035	0.000946	-0.002728	112.565796	-88.218750	28.501358
17031	10280276	9.813171	0.260872	-0.133673	-0.006346	0.000881	0.001051			
17032	10280301	9.812395	0.289464	-0.140871	0.001477	-0.001700	-0.002189			
17033	10280326	9.779167	0.282472	-0.146446	-0.002374	0.001016	0.000530			
17034	10280351	9.794567	0.297539	-0.124008	-0.005589	-0.000665	-0.001073	112.572693	-88.219742	28.495300
17035	10280376	9.809680	0.272709	-0.130348	-0.004491	-0.001751	-0.005764			
17036	10280401	9.814273	0.290890	-0.139941	-0.001413	-0.001557	-0.002697			
17037	10280426	9.809938	0.285367	-0.121689	-0.009607	-0.001511	-0.003184			
17038	10280451	9.787977	0.290756	-0.123080	-0.001940	-0.004791	0.002043	112.604141	-88.218864	28.463959
17039	10280476	9.819677	0.277728	-0.140425	-0.001173	-0.001109	-0.004359			
17040	10280501	9.827449	0.260994	-0.130893	-0.008212	-0.000769	0.001429			
17041	10280526	9.846178	0.282018	-0.120945	-0.010648	-0.001343	-0.004402			
17042	10280551	9.814247	0.292291	-0.141311	-0.009681	0.003345	0.002484	112.601418	-88.219521	28.464981
17043	10280576	9.820102	0.287367	-0.152884	-0.009698	0.001265	-0.001118			
17044	10280601	9.804548	0.301611	-0.130252	-0.005470	0.003079	-0.007209			
17045	10280626	9.803295	0.281873	-0.118308	-0.005142	-0.000845	-0.000305			
17046	10280651	9.812156	0.271025	-0.143259	-0.005135	0.000636	-0.003694	112.567802	-88.219414	28.497669
17047	10280676	9.820552	0.277932	-0.127955	-0.006582	0.000234	0.001495			
17048	10280701	9.800841	0.284095	-0.110591	-0.004560	0.003238	-0.000991			
17049	10280726	9.786810	0.308406	-0.125891	-0.003421	0.001113	-0.005552			
17050	10280751	9.803854	0.288521	-0.145098	-0.003259	0.002219	-0.004019	112.529762	-88.219963	28.535652
17051	10280776	9.806866	0.266347	-0.123588	-0.003017	-0.001195	-0.000831			
17052	10280801	9.805153	0.258071	-0.140338	-0.001782	0.000241	-0.002685			
17053	10280826	9.814247	0.281559	-0.117928	-0.004725	-0.004011	-0.002058			
17054	10280851	9.790538	0.282009	-0.135505	-0.003703	0.000148	-0.001968	112.545715	-88.219521	28.520906
17055	10280876	9.789469	0.296390	-0.145985	-0.004503	0.003235	-0.000668			
17056	10280901	9.809595	0.269473	-0.111192	-0.008161	-0.002638	0.000337			
17057	10280926	9.816702	0.281233	-0.129367	-0.005387	0.001030	0.001752			
17058	10280951	9.806002	0.283442	-0.094848	-0.006853	-0.001392	-0.000818	112.551308	-88.220840	28.514572
17059	10280976	9.801043	0.283186	-0.141728	-0.005086	0.003481	-0.003043			
17060	10281001	9.828175	0.266878	-0.105503	-0.004961	-0.002918	-0.005707			
17061	10281026	9.825033	0.291008	-0.109744	-0.008227	0.001690	-0.000159			
17062	10281051	9.829989	0.286262	-0.131925	-0.004934	-0.003368	-0.001092	112.545639	-88.220734	28.519405
17063	10281076	9.794116	0.300011	-0.133098	-0.009678	0.001146	-0.000474			
17064	10281101	9.826225	0.274122	-0.112674	-0.006610	-0.001532	-0.007938			
17065	10281126	9.824285	0.276845	-0.113165	0.003502	-0.003025	-0.001243			
17066	10281151	9.780807	0.300398	-0.138300	-0.002258	-0.000790	0.000907	112.555527	-88.220291	28.510252
17067	10281176	9.784945	0.280739	-0.151803	-0.008202	-0.003482	-0.001144			
17068	10281201	9.801512	0.286069	-0.146611	0.000273	-0.004178	-0.000843			
17069	10281226	9.805367	0.298711	-0.103419	-0.003791	0.001381	0.004062			
17070	10281251	9.806785	0.306098	-0.115452	-0.006987	0.000603	-0.003497	112.583817	-88.221504	28.481174
17071	10281276	9.800926	0.284362	-0.124998	0.000195	0.000215	-0.003396			
17072	10281301	9.811791	0.289173	-0.121202	-0.008711	0.000377	-0.004074			
17073	10281326	9.809454	0.291662	-0.132715	-0.006075	0.000562	0.001822			
17074	10281351	9.793775	0.293042	-0.141308	-0.001787	-0.001889	-0.002243	112.581352	-88.220840	28.484661
17075	10281376	9.809340	0.269581	-0.148523	-0.008053	0.000273	0.000796			
17076	10281401	9.798184	0.278284	-0.132154	-0.006403	0.000353	-0.005107			
17077	10281426	9.804180	0.286181	-0.115899	-0.005381	0.000434	-0.004597			
17078	10281451	9.812074	0.277142	-0.141368	-0.005096	-0.000526	-0.002548	112.564888	-88.220627	28.500099
17079	10281476	9.821181	0.264694	-0.126010	-0.001350	0.002636	-0.003445			
17080	10281501	9.792012	0.273312	-0.124929	-0.002766	0.002940	-0.002919			
17081	10281526	9.812032	0.306205	-0.117362	-0.001267	0.000191	-0.001597			
17082	10281551	9.811508	0.290115	-0.154279	-0.004897	0.001615	-0.000231	112.526649	-88.221939	28.538755
17083	10281576	9.799090	0.288952	-0.146040	-0.005591	0.002882	-0.006761			
17084	10281601	9.814106	0.301796	-0.136055	-0.005385	0.002699	-0.003560			
17085	10281626	9.822157	0.302234	-0.128003	-0.003730	-0.001411	-0.004423			
17086	10281651	9.829098	0.278504	-0.126042	-0.007707	0.003569	-0.001177	112.473198	-88.220840	28.592464
17087	10281676	9.793830	0.274153	-0.111533	0.001292	-0.000229	-0.007883			
17088	10281701	9.797735	0.270408	-0.120670	-0.004633	-0.000635	0.002001			
17089	10281726	9.793523	0.306097	-0.126420	-0.010529	-0.002688	-0.002675			
17090	10281751	9.812673	0.270655	-0.149070	-0.001328	-0.004600	-0.005403	112.490593	-88.220070	28.575222
17091	10281776	9.788171	0.276150	-0.124941	-0.002313	-0.001445	-0.004168			
17092	10281801	9.810780	0.258377	-0.127897	-0.006437	0.001651	-0.001955			
17093	10281826	9.813059	0.267431	-0.128378	-0.000413	0.001629	0.000148			
17094	10281851	9.817430	0.261390	-0.129412	-0.003909	-0.001737	-0.004551	112.479538	-88.219635	28.587421
17095	10281876	9.793303	0.283733	-0.123513	-0.006363	0.001265	-0.002725			
17096	10281901	9.820424	0.296741	-0.144260	-0.007534	0.001758	-0.002530			
17097	10281926	9.794950	0.309509	-0.132604	-0.002798	0.002037	-0.000940			
17098	10281951	9.809011	0.287847	-0.130816	-0.003891	-0.001866	-0.000383	112.461205	-88.220512	28.605253
17099	10281976	9.820168	0.268895	-0.126020	-0.006242	0.004053	0.003955			
17100	10282001	9.812000	0.271622	-0.120241	-0.008494	0.001673	-0.005157			
17101	10282026	9.798673	0.310897	-0.123109	-0.011836	-0.002137	-0.004460			
17102	10282051	9.806873	0.302467	-0.121193	-0.003640	-0.000057	-0.006144	112.431145	-88.220291	28.633781
17103	10282076	9.796712	0.293281	-0.154688	-0.009638	0.001329	-0.004575			
17104	10282101	9.814422	0.260947	-0.103460	-0.011483	0.001237	-0.001499			
17105	10282126	9.797731	0.300611	-0.102471	-0.008556	-0.000462	-0.004590			
17106	10282151	9.791663	0.306214	-0.134108	-0.000592	-0.001359	-0.004679	112.407326	-88.219299	28.656363
17107	10282176	9.785001	0.306116	-0.135949	0.001065	-0.002740	-0.000203			
17108	10282201	9.815827	0.308679	-0.119784	-0.004393	0.001682	-0.004271			
17109	10282226	9.821035	0.284831	-0.143263	-0.004181	0.001436	0.002070			
17110	10282251	9.821773	0.267861	-0.151004	-0.003982	-0.001144	0.000653	112.415459	-88.220398	28.648876
17111	10282276	9.792584	0.301709	-0.120101	-0.001262	0.004201	-0.001058			
17112	10282301	9.788450	0.292252	-0.127310	-0.001939	0.000888	-0.003575			
17113	10282326	9.803791	0.279973	-0.117344	-0.009820	0.003338	-0.000528			
17114	10282351	9.822133	0.309542	-0.141356	0.001206	0.000873	-0.003774	112.367638	-88.221390	28.697279
17115	10282376	9.800606	0.280355	-0.142712	-0.006975	0.002219	-0.004707			
17116	10282401	9.811965	0.286185	-0.143258	-0.010902	0.000986	-0.003679			
17117	10282426	9.823380	0.277449	-0.122242	-0.008695	-0.001878	-0.001395			
17118	10282451	9.798715	0.308993	-0.124957	-0.008069	0.000650	-0.002921	112.342216	-88.220398	28.721113
17119	10282476	9.806453	0.300578	-0.127870	-0.003301	0.001831	-0.001326			
17120	10282501	9.805447	0.261504	-0.117797	-0.001714	0.002123	-0.000490			
17121	10282526	9.810257	0.289335	-0.103970	-0.005849	-0.000730	-0.000496			
17122	10282551	9.798521	0.289640	-0.131707	-0.005123	-0.001302	-0.001015	112.335655	-88.221275	28.728367
17123	10282576	9.791205	0.298439	-0.122491	-0.002001	0.005148	-0.003809			
17124	10282601	9.800889	0.300372	-0.152307	-0.000049	0.000280	0.001675			
17125	10282626	9.808324	0.288760	-0.097239	-0.002040	0.000173	-0.002617			
17126	10282651	9.799349	0.285868	-0.104392	-0.008360	-0.000255	-0.000806	112.310867	-88.222267	28.753553
17127	10282676	9.785586	0.298086	-0.137815	-0.005500	0.002639	-0.001760			
17128	10282701	9.793225	0.319550	-0.105844	-0.001280	-0.003628	-0.002573			
17129	10282726	9.790561	0.315608	-0.130685	-0.007024	-0.000042	-0.003120			
17130	10282751	9.801351	0.310158	-0.168639	-0.001311	-0.000528	-0.001657	112.309120	-88.221939	28.756258
17131	10282776	9.798801	0.298428	-0.118326	-0.004163	-0.001279	-0.000180			
17132	10282801	9.769927	0.282372	-0.114764	0.001676	0.000244	-0.002241			
17133	10282826	9.780252	0.312463	-0.151746	-0.004072	-0.000051	0.000149			
17134	10282851	9.826639	0.262894	-0.157729	-0.010848	-0.001149	-0.004527	112.314087	-88.222603	28.750919
17135	10282876	9.793978	0.309525	-0.131658	-0.010888	0.000729	-0.001952			
17136	10282901	9.806466	0.273389	-0.152343	-0.006534	0.000812	0.000799			
17137	10282926	9.808971	0.279345	-0.106390	-0.004241	-0.000694	0.001171			
17138	10282951	9.788938	0.294766	-0.131672	-0.004697	-0.003041	-0.003973	112.322571	-88.222824	28.742002
17139	10282976	9.804006	0.303806	-0.122657	0.000416	-0.002757	-0.003926			
17140	10283001	9.799939	0.292031	-0.135108	-0.003761	-0.001915	-0.000121			
17141	10283026	9.804556	0.309392	-0.146143	-0.002389	-0.002939	-0.002249			
17142	10283051	9.813443	0.321860	-0.145639	-0.005002	0.000764	-0.003831	112.342354	-88.222382	28.723234
17143	10283076	9.805836	0.276468	-0.135032	-0.003174	0.003906	0.000359			
17144	10283101	9.826064	0.287799	-0.116485	-0.007534	0.002217	0.000167			
17145	10283126	9.807579	0.320850	-0.119297	0.000918	-0.002098	-0.001161			
17146	10283151	9.821417	0.283655	-0.125636	-0.009385	-0.004674	-0.003394	112.345406	-88.222931	28.720146
17147	10283176	9.785083	0.301437	-0.138351	-0.001258	-0.000395	-0.003327			
17148	10283201	9.794966	0.298408	-0.115313	-0.006631	0.005579	-0.005397			
17149	10283226	9.827897	0.291139	-0.110252	-0.005205	0.001016	-0.003827			
17150	10283251	9.807406	0.266060	-0.133672	0.001536	-0.001511	-0.002316	112.308182	-88.222054	28.758738
17151	10283276	9.803181	0.276992	-0.168078	-0.003509	0.004090	-0.003488			
17152	10283301	9.798820	0.299558	-0.123005	-0.002018	0.005332	-0.008364			
17153	10283326	9.820895	0.279637	-0.109763	0.000207	-0.000043	-0.002760			
17154	10283351	9.809677	0.276102	-0.136532	-0.000481	0.001369	-0.002488	112.241531	-88.221611	28.827417
17155	10283376	9.787591	0.276308	-0.109072	-0.004636	0.003691	0.000104			
17156	10283401	9.808995	0.276593	-0.105426	-0.008997	-0.000860	-0.005873			
17157	10283426	9.814795	0.275359	-0.116507	0.000311	-0.005469	-0.001372			
17158	10283451	9.815931	0.299093	-0.117903	-0.005037	-0.002067	-0.000058	112.255432	-88.222160	28.812761
17159	10283476	9.809584	0.290533	-0.150941	-0.005315	0.000633	-0.000744			
17160	10283501	9.791310	0.291364	-0.124005	-0.009471	-0.001900	-0.005174			
17161	10283526	9.812561	0.264988	-0.118806	-0.000016	0.004795	-0.006446			
17162	10283551	9.852010	0.282375	-0.141021	-0.006272	0.004558	-0.002971	112.200775	-88.221832	28.867163
17163	10283576	9.817006	0.291075	-0.120777	-0.002471	0.000174	0.002132			
17164	10283601	9.793964	0.276441	-0.140311	-0.005201	0.000763	-0.003371			
17165	10283626	9.820477	0.265073	-0.090534	-0.006635	0.001971	-0.002088			
17166	10283651	9.827407	0.266845	-0.135691	-0.005637	0.000039	-0.006007	112.179359	-88.221390	28.889105
17167	10283676	9.796345	0.314463	-0.137462	-0.002564	-0.001854	-0.007561			
17168	10283701	9.790442	0.288124	-0.131646	-0.006233	0.001134	-0.003368			
17169	10283726	9.825442	0.302078	-0.119898	-0.007188	-0.003010	0.000520			
17170	10283751	9.796166	0.272970	-0.102474	-0.003721	-0.003076	0.001793	112.200264	-88.221611	28.867352
17171	10283776	9.801438	0.279079	-0.119736	0.001928	-0.000019	-0.003596			
17172	10283801	9.800677	0.296434	-0.108732	-0.002083	-0.002541	-0.002763			
17173	10283826	9.799136	0.276889	-0.130709	-0.009400	0.001846	-0.006498			
17174	10283851	9.825498	0.297003	-0.120310	-0.002348	0.001448	-0.008193	112.168533	-88.219742	28.900925
17175	10283876	9.805015	0.284390	-0.091439	-0.007150	0.003695	-0.006689			
17176	10283901	9.831485	0.269287	-0.106929	-0.007299	0.000337	-0.003761			
17177	10283926	9.813216	0.284757	-0.110205	-0.004368	-0.001162	-0.003903			
17178	10283951	9.786674	0.279403	-0.122497	-0.002682	0.002232	-0.003883	112.121742	-88.218971	28.946966
17179	10283976	9.808773	0.277161	-0.147561	-0.005671	-0.000077	0.000851			
17180	10284001	9.790282	0.307768	-0.145100	-0.003959	-0.001994	-0.002365			
17181	10284026	9.788068	0.318180	-0.116346	-0.009240	-0.000463	0.001378			
17182	10284051	9.799415	0.281205	-0.105405	-0.003888	-0.004517	-0.005648	112.148453	-88.218536	28.920200
17183	10284076	9.798494	0.286597	-0.119771	-0.002910	-0.004748	-0.001167			
17184	10284101	9.803891	0.287594	-0.149887	-0.004840	0.004005	-0.001436			
17185	10284126	9.835768	0.278118	-0.126134	-0.003968	0.000662	0.000915			
17186	10284151	9.827696	0.274137	-0.120365	0.001597	-0.003308	0.000818	112.169189	-88.219963	28.899969
17187	10284176	9.817227	0.272585	-0.117919	-0.001711	-0.002345	-0.004619			
17188	10284201	9.787783	0.299592	-0.108226	-0.001012	-0.006203	-0.002465			
17189	10284226	9.805332	0.276393	-0.129785	-0.001891	0.003533	-0.004846			
17190	10284251	9.792064	0.307515	-0.125429	-0.003637	0.000012	-0.002487	112.174614	-88.218208	28.897179
17191	10284276	9.807259	0.280429	-0.140389	-0.005612	-0.002675	-0.006276			
17192	10284301	9.814574	0.291013	-0.112129	-0.005765	0.000297	-0.005753			
17193	10284326	9.818103	0.280222	-0.120343	-0.008433	-0.004399	-0.003909			
17194	10284351	9.822053	0.277165	-0.138053	-0.001465	-0.001620	-0.000131	112.188698	-88.217323	28.882124
17195	10284376	9.795949	0.302843	-0.127335	-0.008167	0.001615	-0.004198			
17196	10284401	9.773186	0.296906	-0.131125	-0.003259	-0.001857	-0.003521			
17197	10284426	9.804605	0.306568	-0.148053	-0.003324	-0.001852	-0.002755			
17198	10284451	9.812384	0.289951	-0.140880	0.002211	-0.000593	-0.002889	112.184959	-88.216560	28.886992
17199	10284476	9.785241	0.279796	-0.121574	-0.007699	-0.000890	0.000091			
17200	10284501	9.803332	0.274586	-0.109210	-0.004081	-0.001660	0.002766			
17201	10284526	9.819452	0.291807	-0.131823	-0.004347	-0.001869	-0.001919			
17202	10284551	9.812143	0.272916	-0.145175	-0.002956	0.000800	-0.003769	112.203011	-88.217102	28.869137
17203	10284576	9.807861	0.301956	-0.125977	-0.007062	-0.000811	0.000143			
17204	10284601	9.833937	0.269454	-0.118529	-0.003339	-0.005147	0.000560			
17205	10284626	9.811033	0.276848	-0.126982	-0.005431	-0.001618	0.002639			
17206	10284651	9.795199	0.285707	-0.125962	-0.003576	-0.002047	-0.002562	112.252266	-88.217323	28.820475
17207	10284676	9.807616	0.281021	-0.121698	-0.004093	-0.001472	0.000648			
17208	10284701	9.802421	0.282576	-0.133186	-0.010075	-0.003198	-0.003831			
17209	10284726	9.789364	0.296040	-0.128237	-0.005972	0.003803	0.003892			
17210	10284751	9.815264	0.280207	-0.124604	-0.000878	0.000198	0.000523	112.263435	-88.219078	28.808512
17211	10284776	9.806360	0.262350	-0.112563	-0.006753	-0.002353	0.002508			
17212	10284801	9.808622	0.285624	-0.139420	-0.001396	-0.001946	-0.002827			
17213	10284826	9.813523	0.307286	-0.128466	-0.004095	-0.001602	-0.000694			
17214	10284851	9.800982	0.296711	-0.159476	-0.004818	0.001162	-0.000876	112.288162	-88.219635	28.783747
17215	10284876	9.826244	0.249392	-0.144739	-0.003798	0.000849	-0.006273			
17216	10284901	9.788659	0.306274	-0.111050	-0.005388	0.000761	-0.003177			
17217	10284926	9.796448	0.291142	-0.109626	-0.006740	0.001456	0.001639			
17218	10284951	9.797856	0.280583	-0.160445	-0.001548	-0.001304	-0.004101	112.266747	-88.219849	28.804728
17219	10284976	9.828229	0.296900	-0.175514	-0.009762	-0.002813	-0.003833			
17220	10285001	9.802248	0.288020	-0.115907	-0.007771	-0.002898	-0.003263			
17221	10285026	9.820728	0.267656	-0.135183	-0.001499	-0.000980	-0.002946			
17222	10285051	9.796543	0.299301	-0.139310	-0.000684	0.003551	-0.007856	112.256622	-88.217979	28.815289
17223	10285076	9.802721	0.297280	-0.133178	-0.000228	-0.000374	-0.001532			
17224	10285101	9.784828	0.285857	-0.144573	0.002374	0.000252	-0.002691			
17225	10285126	9.784079	0.308122	-0.145088	-0.002530	-0.002219	0.001413			
17226	10285151	9.787543	0.289984	-0.130656	-0.000946	0.001799	-0.006847	112.251518	-88.218094	28.822756
17227	10285176	9.806246	0.279205	-0.127384	-0.000094	0.001828	-0.000694			
17228	10285201	9.817420	0.255429	-0.114052	-0.001664	0.000508	-0.001401			
17229	10285226	9.822175	0.292964	-0.112199	-0.008859	-0.002918	-0.002618			
17230	10285251	9.817884	0.292889	-0.111679	-0.005627	-0.001764	-0.002751	112.256065	-88.218094	28.818590
17231	10285276	9.817925	0.297416	-0.126998	-0.009465	0.000040	-0.003564			
17232	10285301	9.795152	0.287550	-0.121144	-0.006491	-0.000809	-0.003064			
17233	10285326	9.830378	0.258800	-0.137107	-0.003891	-0.000054	-0.002234			
17234	10285351	9.810718	0.308843	-0.140865	-0.005972	-0.000726	0.001232	112.255241	-88.218422	28.817965
17235	10285376	9.800097	0.282686	-0.145091	-0.003310	0.002295	0.002527			
17236	10285401	9.797276	0.289152	-0.160475	-0.002353	-0.000620	-0.007173			
17237	10285426	9.805902	0.306260	-0.126491	-0.006415	-0.003263	-0.001855			
17238	10285451	9.837090	0.283237	-0.117968	-0.010659	-0.000493	-0.001897	112.256737	-88.218094	28.816309
17239	10285476	9.820845	0.291741	-0.127533	-0.003174	-0.002627	-0.003140			
17240	10285501	9.782371	0.286138	-0.131622	-0.004113	-0.001222	-0.003582			
17241	10285526	9.804694	0.316823	-0.105398	-0.001454	-0.002207	-0.002180			
17242	10285551	9.817469	0.259497	-0.131329	-0.005069	-0.001174	-0.000758	112.277992	-88.218094	28.795006
17243	10285576	9.811944	0.306433	-0.104431	-0.004339	0.002404	-0.000678			
17244	10285601	9.796922	0.296983	-0.118270	-0.003272	-0.001396	-0.002494			
17245	10285626	9.818215	0.308150	-0.119795	-0.004224	0.000791	0.002006			
17246	10285651	9.809901	0.289118	-0.122642	-0.005680	0.000116	0.001301	112.277748	-88.219078	28.796091
17247	10285676	9.779260	0.315791	-0.151252	-0.003611	-0.000823	-0.003579			
17248	10285701	9.781305	0.297113	-0.136906	-0.004491	0.000581	-0.002924			
17249	10285726	9.807345	0.280064	-0.152869	-0.006676	-0.003132	-0.001086			
17250	10285751	9.821785	0.296101	-0.131822	-0.003843	-0.001344	-0.000060	112.291321	-88.219078	28.782671
17251	10285776	9.827603	0.281333	-0.120344	-0.008342	0.000638	-0.005934			
17252	10285801	9.768852	0.294790	-0.120050	-0.006497	0.001255	-0.004710			
17253	10285826	9.806137	0.282838	-0.116430	-0.009851	-0.001900	-0.001903			
17254	10285851	9.828671	0.271273	-0.117876	-0.005719	0.003405	0.000294	112.261131	-88.218971	28.811169
17255	10285876	9.824512	0.267182	-0.130349	-0.003871	0.003302	-0.004971			
17256	10285901	9.818731	0.277691	-0.141380	-0.007118	0.000861	-0.002535			
17257	10285926	9.789244	0.306592	-0.130666	0.001340	0.000751	-0.003326			
17258	10285951	9.797838	0.298421	-0.116405	-0.002518	-0.003131	-0.002830	112.237770	-88.218422	28.835598
17259	10285976	9.810434	0.286860	-0.128891	-0.002119	0.000823	-0.001454			
17260	10286001	9.784828	0.277057	-0.126336	-0.002527	-0.000480	-0.002496			
17261	10286026	9.801812	0.289604	-0.125038	-0.000736	-0.000976	-0.005704			
17262	10286051	9.804649	0.301271	-0.147046	-0.003369	-0.000158	0.002255	112.237221	-88.218536	28.837524
17263	10286076	9.777549	0.301552	-0.154524	-0.005186	0.004776	0.001520			
17264	10286101	9.770240	0.317699	-0.160339	-0.005497	-0.001498	0.001554			
17265	10286126	9.793851	0.308175	-0.107249	-0.001839	-0.000146	-0.002939			
17266	10286151	9.803988	0.304189	-0.121641	-0.003766	0.002545	0.000417	112.221611	-88.220177	28.853251
17267	10286176	9.821165	0.292405	-0.103058	-0.004648	-0.002857	-0.008531			
17268	10286201	9.800921	0.284799	-0.125484	-0.008652	0.000775	-0.001696			
17269	10286226	9.815630	0.290754	-0.129394	-0.003013	-0.001459	-0.003463			
17270	10286251	9.814544	0.300689	-0.127395	0.001438	0.005801	-0.000548	112.194847	-88.219521	28.880655
17271	10286276	9.798305	0.304214	-0.125974	-0.002277	-0.002472	-0.000384			
17272	10286301	9.799737	0.294982	-0.110112	-0.004706	0.001617	0.000091			
17273	10286326	9.816998	0.294967	-0.127504	-0.004253	-0.000504	-0.000496			
17274	10286351	9.784834	0.322832	-0.141708	-0.005503	-0.001568	-0.002171	112.209480	-88.220177	28.866247
17275	10286376	9.787151	0.295035	-0.152283	-0.001509	-0.000729	-0.004289			
17276	10286401	9.817696	0.276083	-0.124583	-0.009827	0.001059	-0.007662			
17277	10286426	9.818233	0.274753	-0.131814	-0.007133	-0.001089	-0.007169			
17278	10286451	9.787400	0.299877	-0.125872	-0.005634	0.002302	-0.005540	112.166138	-88.218315	28.908810
17279	10286476	9.795824	0.305482	-0.113428	-0.007099	0.002216	-0.004393			
17280	10286501	9.797991	0.293963	-0.131702	-0.007387	-0.001158	-0.007166			
17281	10286526	9.784622	0.303926	-0.146081	-0.006711	-0.004177	-0.004612			
17282	10286551	9.812677	0.259822	-0.127469	-0.005509	-0.001299	0.000332	112.163300	-88.217216	28.910006
17283	10286576	9.840645	0.264800	-0.116123	-0.001559	-0.003250	-0.005330			
17284	10286601	9.802752	0.288032	-0.118814	-0.000970	-0.003356	-0.000653			
17285	10286626	9.812742	0.288146	-0.117890	-0.001003	-0.002135	-0.000452			
17286	10286651	9.809546	0.287033	-0.139968	-0.002831	-0.002940	0.000255	112.211098	-88.217216	28.863731
17287	10286676	9.834359	0.278619	-0.128538	-0.000985	-0.002706	0.000633			
17288	10286701	9.784226	0.285019	-0.121554	-0.003615	-0.000690	-0.002684			
17289	10286726	9.799379	0.290930	-0.121130	-0.001347	0.002578	-0.002159			
17290	10286751	9.795718	0.281406	-0.123960	-0.007854	0.003888	-0.003350	112.193115	-88.217323	28.882965
17291	10286776	9.794025	0.309579	-0.138892	-0.003238	-0.002357	0.000581			
17292	10286801	9.779045	0.277690	-0.116768	-0.005911	-0.002465	0.004306			
17293	10286826	9.814116	0.287111	-0.106855	-0.008246	-0.002003	-0.003129			
17294	10286851	9.811102	0.274163	-0.133625	-0.008148	0.003037	-0.003996	112.211197	-88.218208	28.863672
17295	10286876	9.793324	0.290150	-0.142212	-0.008641	0.000910	0.002794			
17296	10286901	9.797059	0.287552	-0.122107	-0.004603	0.000325	-0.001200			
17297	10286926	9.805247	0.285957	-0.134211	-0.006902	-0.004305	-0.002497			
17298	10286951	9.809731	0.279169	-0.151407	-0.001876	-0.000986	-0.001855	112.230392	-88.218643	28.843914
17299	10286976	9.786640	0.287103	-0.131671	0.000621	-0.002614	0.000763			
17300	10287001	9.810616	0.292017	-0.089080	-0.009479	0.002362	-0.006048			
17301	10287026	9.819349	0.299911	-0.132294	-0.010471	-0.000626	-0.004652			
17302	10287051	9.826335	0.286534	-0.157164	-0.003362	0.006036	-0.000791	112.197006	-88.218315	28.878019
17303	10287076	9.780000	0.287078	-0.134938	-0.003022	0.000934	-0.002547			
17304	10287101	9.811230	0.265145	-0.135564	-0.004661	0.002332	-0.001124			
17305	10287126	9.825797	0.263391	-0.103054	-0.006159	0.001404	0.003044			
17306	10287151	9.798852	0.292217	-0.113976	-0.006625	-0.000684	-0.004025	112.178589	-88.219078	28.896172
17307	10287176	9.780142	0.317104	-0.142172	-0.004464	-0.000259	-0.002931			
17308	10287201	9.815886	0.271862	-0.132269	-0.006306	-0.000678	-0.003770			
17309	10287226	9.783237	0.298141	-0.142162	-0.007898	-0.000703	-0.001772			
17310	10287251	9.832141	0.272687	-0.142925	-0.009681	-0.001451	-0.003567	112.176598	-88.218750	28.896547
17311	10287276	9.800638	0.280869	-0.147928	-0.003183	0.004229	-0.000928			
17312	10287301	9.767525	0.288158	-0.122426	-0.003229	0.001444	-0.001647			
17313	10287326	9.819587	0.277461	-0.125133	-0.009266	-0.004348	-0.003330			
17314	10287351	9.790668	0.307013	-0.131208	-0.004087	-0.001338	0.003670	112.179253	-88.219963	28.893238
17315	10287376	9.792775	0.299249	-0.146981	-0.002146	0.001791	0.000593			
17316	10287401	9.798077	0.286783	-0.132620	-0.003593	0.003059	0.001702			
17317	10287426	9.805820	0.300186	-0.101047	-0.002627	-0.001520	-0.003591			
17318	10287451	9.803001	0.311960	-0.129840	-0.004640	-0.000782	-0.002679	112.170036	-88.220398	28.903702
17319	10287476	9.807751	0.303698	-0.112563	-0.009896	-0.000550	-0.004268			
17320	10287501	9.808816	0.293164	-0.110153	-0.008689	0.002263	0.001390			
17321	10287526	9.794064	0.289645	-0.105791	-0.006546	0.001329	0.001442			
17322	10287551	9.836856	0.269650	-0.128638	-0.003168	-0.008763	-0.000872	112.195831	-88.221275	28.876308
17323	10287576	9.795183	0.291999	-0.136493	-0.006394	-0.001833	-0.000243			
17324	10287601	9.783651	0.304394	-0.145539	-0.002863	-0.002362	-0.004558			
17325	10287626	9.812978	0.282928	-0.146622	0.001107	0.001711	-0.004032			
17326	10287651	9.835485	0.263925	-0.126635	-0.001124	-0.002654	-0.002956	112.205551	-88.220512	28.867941
17327	10287676	9.804395	0.239934	-0.133614	-0.003879	-0.000507	-0.004159			
17328	10287701	9.813627	0.285077	-0.099659	-0.010677	-0.000305	-0.004266			
17329	10287726	9.808980	0.288777	-0.128378	-0.009647	0.001848	-0.001754			
17330	10287751	9.802032	0.285222	-0.151824	-0.004101	0.000657	-0.001006	112.185104	-88.219963	28.887291
17331	10287776	9.799438	0.287157	-0.121133	0.000885	0.002748	-0.004850			
17332	10287801	9.803576	0.262595	-0.125036	0.002845	-0.000782	-0.006166			
17333	10287826	9.803699	0.286136	-0.115959	-0.005214	-0.000787	-0.002548			
17334	10287851	9.814528	0.303582	-0.129371	-0.002450	-0.000998	-0.003523	112.164085	-88.218864	28.910238
17335	10287876	9.827344	0.274518	-0.142331	-0.002016	0.005473	-0.004449			
17336	10287901	9.809792	0.302072	-0.130322	-0.004452	-0.000250	-0.000755			
17337	10287926	9.810231	0.270399	-0.137529	-0.003619	-0.002436	-0.000064			
17338	10287951	9.835638	0.289018	-0.125615	-0.004481	0.002851	-0.000486	112.137230	-88.219742	28.937695
17339	10287976	9.814459	0.277681	-0.144758	-0.005661	-0.000727	-0.000687			
17340	10288001	9.777954	0.294554	-0.128804	-0.001037	-0.007042	-0.000219			
17341	10288026	9.790919	0.293527	-0.144090	-0.002663	0.001785	-0.001329			
17342	10288051	9.811462	0.287541	-0.142264	-0.010081	0.003853	0.000310	112.150375	-88.220398	28.924915
17343	10288076	9.812258	0.260525	-0.138413	-0.007291	0.004214	-0.004698			
17344	10288101	9.811086	0.270185	-0.121321	-0.010033	-0.008626	-0.003414			
17345	10288126	9.779737	0.301136	-0.121113	-0.000434	-0.002323	-0.004938			
17346	10288151	9.801298	0.304104	-0.148474	-0.002909	0.001651	-0.000745	112.154709	-88.219849	28.920015
17347	10288176	9.801806	0.298442	-0.142290	-0.003220	-0.001405	-0.005125			
17348	10288201	9.810398	0.281397	-0.111169	-0.004987	-0.001878	-0.001790			
17349	10288226	9.813048	0.265002	-0.120285	0.000413	-0.002758	-0.004375			
17350	10288251	9.817997	0.267012	-0.155248	-0.005399	0.001016	-0.004084	112.157852	-88.218315	28.918407
17351	10288276	9.813038	0.279669	-0.148990	-0.008170	0.001611	-0.004645			
17352	10288301	9.793113	0.299893	-0.125952	-0.007825	-0.001283	-0.002031			
17353	10288326	9.801955	0.318025	-0.128325	-0.005779	0.001411	0.002337			
17354	10288351	9.824972	0.272030	-0.137585	-0.004815	-0.001100	-0.001146	112.151489	-88.218643	28.924011
17355	10288376	9.824790	0.266203	-0.096868	-0.006358	-0.001329	-0.005628			
17356	10288401	9.779325	0.296375	-0.122007	-0.008418	-0.000586	-0.003439			
17357	10288426	9.823561	0.269622	-0.137550	-0.006242	-0.000417	0.000782			
17358	10288451	9.786860	0.309972	-0.135462	-0.003128	0.000216	-0.003766	112.146057	-88.218315	28.928627
17359	10288476	9.794710	0.280766	-0.113427	-0.003590	0.004801	-0.003292			
17360	10288501	9.811650	0.257616	-0.113005	-0.005373	0.005171	0.004983			
17361	10288526	9.823812	0.276865	-0.114526	-0.005034	0.003935	-0.000732			
17362	10288551	9.793852	0.309650	-0.110121	-0.004911	-0.000203	-0.002287	112.092445	-88.220398	28.981834
17363	10288576	9.784821	0.312571	-0.118714	-0.005549	-0.002347	-0.004734			
17364	10288601	9.781181	0.295771	-0.113374	-0.004552	0.000845	-0.000939			
17365	10288626	9.792606	0.275605	-0.148410	-0.010964	0.002858	-0.004436			
17366	10288651	9.799721	0.272615	-0.138388	-0.005923	0.001861	0.002210	112.070869	-88.220398	29.002684
17367	10288676	9.821536	0.277130	-0.130893	-0.006446	-0.002426	-0.004223			
17368	10288701	9.780303	0.294975	-0.122543	-0.006069	-0.002226	-0.003962			
17369	10288726	9.777808	0.299058	-0.113363	-0.003925	-0.000632	-0.000821			
17370	10288751	9.797493	0.299200	-0.140301	-0.009070	0.002256	0.002223	112.077820	-88.221169	28.994129
17371	10288776	9.814131	0.297412	-0.131768	-0.007440	0.000986	-0.000484			
17372	10288801	9.814331	0.281262	-0.129883	-0.000927	-0.002646	-0.001934			
17373	10288826	9.823454	0.304336	-0.113143	-0.002630	0.001071	0.000471			
17374	10288851	9.811449	0.288004	-0.141358	-0.004525	0.000139	0.000276	112.084526	-88.221939	28.988047
17375	10288876	9.806143	0.290219	-0.133659	0.000383	-0.001526	-0.002372			
17376	10288901	9.820898	0.277238	-0.105943	-0.009845	-0.000356	-0.005677			
17377	10288926	9.804228	0.289209	-0.130760	-0.005810	-0.002089	-0.003135			
17378	10288951	9.807125	0.290840	-0.138469	-0.003260	-0.001858	-0.004548	112.089828	-88.220398	28.983215
17379	10288976	9.821470	0.269083	-0.104896	-0.009911	0.004436	-0.001036			
17380	10289001	9.798720	0.305105	-0.117334	-0.002830	0.000538	-0.004856			
17381	10289026	9.769810	0.308582	-0.148820	-0.008039	-0.000715	-0.006838			
17382	10289051	9.801764	0.299747	-0.137525	-0.005442	-0.003766	-0.003846	112.064262	-88.219963	29.007025
17383	10289076	9.803298	0.284313	-0.122215	-0.004545	-0.005811	-0.001615			
17384	10289101	9.820114	0.260933	-0.099710	-0.005008	-0.001235	-0.002941			
17385	10289126	9.837741	0.269992	-0.119435	-0.003451	0.000411	-0.000948			
17386	10289151	9.794911	0.270568	-0.126871	-0.004821	0.000963	-0.004274	112.079010	-88.219299	28.992760
17387	10289176	9.807573	0.289751	-0.132688	-0.001614	-0.001106	-0.002185			
17388	10289201	9.803061	0.276156	-0.147049	-0.002407	0.001720	-0.001265			
17389	10289226	9.775795	0.306611	-0.111057	-0.007534	-0.006385	-0.003020			
17390	10289251	9.811817	0.297561	-0.142265	-0.006633	0.003646	-0.004125	112.076942	-88.218971	28.995028
17391	10289276	9.816049	0.293053	-0.123604	-0.002451	0.001068	-0.002420			
17392	10289301	9.797976	0.279678	-0.100099	-0.007361	-0.001863	-0.004086			
17393	10289326	9.815693	0.289926	-0.138522	-0.005327	-0.000910	-0.000048			
17394	10289351	9.793498	0.269602	-0.125924	-0.002426	-0.002165	-0.006734	112.077805	-88.218422	28.994051
17395	10289376	9.818318	0.305527	-0.129448	-0.001687	-0.002924	-0.002378			
17396	10289401	9.825224	0.245229	-0.123213	-0.003004	-0.001714	-0.000577			
17397	10289426	9.799033	0.295104	-0.149969	-0.004716	-0.003935	0.002691			
17398	10289451	9.805224	0.291283	-0.141318	-0.003743	-0.000633	-0.002424	112.120514	-88.218643	28.952093
17399	10289476	9.804386	0.271018	-0.117261	-0.005522	0.005153	-0.003161			
17400	10289501	9.796999	0.280512	-0.098226	-0.008103	-0.006449	0.001021			
17401	10289526	9.814517	0.254844	-0.107277	-0.006145	0.002493	-0.003499			
17402	10289551	9.815261	0.309871	-0.106373	-0.002205	0.001265	-0.003314	112.101578	-88.219078	28.970053
17403	10289576	9.810303	0.259373	-0.127921	-0.002608	-0.002162	-0.002763			
17404	10289601	9.826515	0.291671	-0.117951	-0.003451	0.000146	-0.002936			
17405	10289626	9.778450	0.319788	-0.104821	-0.005314	-0.003369	-0.000317			
17406	10289651	9.814771	0.290946	-0.144659	-0.007205	0.003971	0.000687	112.105446	-88.219414	28.966200
17407	10289676	9.819489	0.280122	-0.114096	-0.006169	-0.000933	-0.000818			
17408	10289701	9.813879	0.277433	-0.127498	-0.005719	-0.004931	-0.000778			
17409	10289726	9.774754	0.309802	-0.102370	-0.001627	-0.000985	-0.004418			
17410	10289751	9.805518	0.269976	-0.146636	-0.009175	-0.004725	0.002442	112.155685	-88.219193	28.915735
17411	10289776	9.812385	0.259856	-0.159066	-0.009333	0.001983	-0.002652			
17412	10289801	9.801346	0.314256	-0.100110	-0.002070	-0.000463	0.000910			
17413	10289826	9.785981	0.265734	-0.135506	-0.005189	-0.003098	0.003530			
17414	10289851	9.803218	0.311128	-0.165830	-0.005214	-0.005186	-0.005651	112.184959	-88.219193	28.886654
17415	10289876	9.822122	0.276429	-0.148623	-0.003600	-0.005406	-0.001426			
17416	10289901	9.806542	0.300304	-0.141858	-0.004157	-0.005925	-0.000592			
17417	10289926	9.807241	0.284697	-0.144740	-0.005493	-0.003882	0.001733			
17418	10289951	9.791130	0.312871	-0.139809	-0.001387	0.001879	-0.000486	112.247971	-88.220291	28.823252
17419	10289976	9.805961	0.304428	-0.133165	-0.005087	-0.000513	0.001873			
17420	10290001	9.779349	0.296949	-0.127763	-0.005563	0.000054	-0.003056			
17421	10290026	9.795167	0.285573	-0.121152	0.000317	-0.001185	0.002639			
17422	10290051	9.830816	0.293763	-0.125679	-0.003782	-0.001925	-0.005123	112.264709	-88.220627	28.807392
17423	10290076	9.797071	0.283697	-0.116340	-0.003910	-0.001469	-0.002493			
17424	10290101	9.813455	0.273145	-0.125550	-0.006564	-0.000873	-0.003572			
17425	10290126	9.808800	0.297562	-0.115004	-0.009540	-0.003825	-0.001273			
17426	10290151	9.846113	0.308336	-0.164955	-0.010611	0.005776	-0.005193	112.250572	-88.219742	28.820322
17427	10290176	9.814652	0.291193	-0.124553	-0.008309	0.001810	-0.004517			
17428	10290201	9.809649	0.260817	-0.102034	-0.003786	0.000739	-0.000425			
17429	10290226	9.784362	0.263358	-0.099560	-0.002213	-0.004539	-0.001226			
17430	10290251	9.808477	0.303385	-0.152840	-0.004122	-0.001152	-0.004673	112.252495	-88.219742	28.817968
17431	10290276	9.800241	0.320584	-0.166669	-0.002250	0.002497	-0.005102			
17432	10290301	9.797861	0.295546	-0.114026	0.003034	-0.004640	-0.003296			
17433	10290326	9.813063	0.257633	-0.106401	-0.002867	-0.002293	-0.002563			
17434	10290351	9.795138	0.269186	-0.160900	-0.010045	0.001778	-0.004697	112.245033	-88.217758	28.827482
17435	10290376	9.822318	0.297768	-0.145764	-0.010054	-0.002035	-0.004978			
17436	10290401	9.803878	0.290518	-0.152789	-0.005634	0.000376	-0.002798			
17437	10290426	9.803078	0.306329	-0.132644	-0.002460	0.001141	-0.003251			
17438	10290451	9.800300	0.266116	-0.142735	-0.006768	0.001514	-0.003494	112.221725	-88.217545	28.849163
17439	10290476	9.793024	0.277387	-0.142249	-0.004861	-0.001934	-0.002302			
17440	10290501	9.806940	0.291794	-0.111116	-0.004633	0.001039	-0.003311			
17441	10290526	9.783385	0.312946	-0.119164	-0.009955	-0.000665	-0.000992			
17442	10290551	9.776937	0.305630	-0.141131	-0.003138	0.004560	-0.001241	112.201546	-88.218422	28.867897
17443	10290576	9.809582	0.282209	-0.135159	-0.000972	-0.003155	0.000311			
17444	10290601	9.795303	0.261547	-0.093346	-0.003028	-0.001524	-0.006853			
17445	10290626	9.799206	0.256865	-0.100002	-0.004232	0.002669	0.000094			
17446	10290651	9.824118	0.274217	-0.157723	-0.003701	-0.002179	-0.002624	112.212364	-88.217979	28.857969
17447	10290676	9.785761	0.317346	-0.128268	-0.005484	0.002068	0.002539			
17448	10290701	9.804358	0.278301	-0.130699	-0.012363	0.004850	0.000836			
17449	10290726	9.774741	0.283577	-0.124889	-0.004253	-0.001089	-0.004151			
17450	10290751	9.797684	0.280656	-0.133116	-0.004601	0.002004	-0.004394	112.175903	-88.218643	28.893520
17451	10290776	9.788964	0.299716	-0.147906	-0.008887	0.003999	-0.004496			
17452	10290801	9.780330	0.329104	-0.119739	-0.007881	-0.007807	-0.003666			
17453	10290826	9.791883	0.315338	-0.111064	-0.006530	0.000165	-0.003563			
17454	10290851	9.792683	0.305375	-0.145529	-0.004674	0.002857	0.001897	112.168465	-88.218750	28.899508
17455	10290876	9.799926	0.286161	-0.120665	-0.004280	0.002018	-0.002085			
17456	10290901	9.796611	0.272445	-0.097144	-0.003159	0.003530	0.001316			
17457	10290926	9.784643	0.287818	-0.117726	-0.008307	-0.000055	-0.001059			
17458	10290951	9.796083	0.315407	-0.176711	-0.007564	0.002867	-0.001431	112.133499	-88.220070	28.933680
17459	10290976	9.822507	0.283962	-0.148592	-0.005807	-0.000072	0.001562			
17460	10291001	9.809552	0.277220	-0.119307	-0.008039	-0.000569	-0.002024			
17461	10291026	9.796768	0.284119	-0.146065	-0.005141	-0.001034	0.000013			
17462	10291051	9.801510	0.273882	-0.120232	-0.003123	-0.002429	-0.004998	112.148880	-88.220177	28.917761
17463	10291076	9.824531	0.298303	-0.118857	-0.004086	0.002082	-0.002602			
17464	10291101	9.799227	0.304708	-0.122581	-0.004059	0.000918	-0.003502			
17465	10291126	9.798940	0.275252	-0.093815	-0.004035	0.000738	0.001816			
17466	10291151	9.804737	0.278586	-0.113550	-0.002062	-0.003837	-0.006291	112.138405	-88.219521	28.929571
17467	10291176	9.803661	0.287458	-0.112114	-0.007889	-0.003536	-0.001465			
17468	10291201	9.798068	0.279378	-0.114865	-0.005080	0.001296	0.000346			
17469	10291226	9.788081	0.287650	-0.134571	-0.008310	-0.002258	-0.001517			
17470	10291251	9.775290	0.298505	-0.168447	-0.002912	0.003132	-0.006248	112.135269	-88.219742	28.931694
17471	10291276	9.822999	0.276702	-0.135628	-0.004832	0.003363	-0.003293			
17472	10291301	9.812231	0.264869	-0.142322	-0.002965	0.000477	-0.006203			
17473	10291326	9.770844	0.292097	-0.128230	-0.002974	-0.000936	-0.003573			
17474	10291351	9.810582	0.275988	-0.129860	-0.002478	-0.002477	-0.002438	112.114059	-88.219299	28.953356
17475	10291376	9.792773	0.289519	-0.127747	-0.004146	0.005887	-0.004633			
17476	10291401	9.800577	0.266070	-0.109651	-0.006628	0.001654	0.000294			
17477	10291426	9.786518	0.289299	-0.115842	-0.005104	-0.000656	-0.005877			
17478	10291451	9.782033	0.308247	-0.122538	-0.005564	-0.002013	-0.002681	112.078247	-88.219078	28.988659
17479	10291476	9.817064	0.283365	-0.113094	-0.008275	0.000983	-0.000350			
17480	10291501	9.793395	0.323871	-0.142241	-0.002480	-0.000083	-0.000817			
17481	10291526	9.813672	0.293107	-0.124153	-0.004101	-0.004131	-0.006799			
17482	10291551	9.809060	0.288467	-0.140441	-0.008361	-0.004905	-0.003715	112.098969	-88.218094	28.967413
17483	10291576	9.787480	0.291714	-0.122507	-0.003396	0.000547	-0.001071			
17484	10291601	9.784222	0.289930	-0.131578	-0.006099	0.002952	-0.001688			
17485	10291626	9.767368	0.310823	-0.143944	-0.008024	0.002979	-0.005344			
17486	10291651	9.818350	0.276948	-0.154796	-0.004563	0.000717	-0.002156	112.056976	-88.218422	29.008619
17487	10291676	9.815434	0.247648	-0.163891	-0.008963	-0.000076	-0.003621			
17488	10291701	9.811976	0.267628	-0.107310	-0.002462	0.001009	-0.004470			
17489	10291726	9.795393	0.268084	-0.123503	-0.005166	0.000004	0.001752			
17490	10291751	9.819820	0.296491	-0.125498	-0.002040	0.005989	-0.006045	112.014069	-88.217979	29.052073
17491	10291776	9.809424	0.303811	-0.153792	-0.005838	0.001027	0.001058			
17492	10291801	9.798048	0.280828	-0.113992	-0.000781	-0.001417	-0.002688			
17493	10291826	9.811907	0.272258	-0.104482	-0.005589	-0.003104	0.000453			
17494	10291851	9.807113	0.279045	-0.114053	-0.006227	-0.005259	-0.001608	112.053986	-88.218315	29.011847
17495	10291876	9.808736	0.300348	-0.111603	-0.004622	0.000848	-0.001900			
17496	10291901	9.773646	0.298350	-0.131566	-0.001682	-0.001043	-0.002623			
17497	10291926	9.785845	0.304807	-0.115335	-0.001065	-0.000049	0.001933			
17498	10291951	9.785310	0.283464	-0.140789	-0.006208	-0.003967	-0.002690	112.070839	-88.218643	28.995296
17499	10291976	9.795290	0.309239	-0.111152	-0.007272	-0.004894	-0.005703			
17500	10292001	9.834072	0.262001	-0.125694	-0.007474	-0.004311	-0.001474			
17501	10292026	9.802304	0.292117	-0.132264	-0.005080	-0.005572	-0.007252			
17502	10292051	9.794906	0.310409	-0.129304	-0.003427	-0.002682	-0.001410	112.124199	-88.217216	28.940554
17503	10292076	9.793668	0.286880	-0.111523	-0.010411	0.001520	-0.002199			
17504	10292101	9.799239	0.291526	-0.097208	-0.005963	-0.001574	-0.004797			
17505	10292126	9.796710	0.280505	-0.129235	-0.005871	0.002000	0.001313			
17506	10292151	9.824255	0.286631	-0.128034	-0.008191	-0.002326	-0.005177	112.112541	-88.216888	28.950737
17507	10292176	9.817353	0.302055	-0.121700	-0.002569	0.000688	-0.003451			
17508	10292201	9.814331	0.280283	-0.127997	-0.003356	-0.003073	-0.002055			
17509	10292226	9.786694	0.279397	-0.123001	-0.002839	-0.000867	-0.002174			
17510	10292251	9.836104	0.271440	-0.087332	-0.003910	-0.001794	-0.003393	112.122826	-88.216003	28.941889
17511	10292276	9.816815	0.294097	-0.094882	-0.005223	-0.000787	-0.006074			
17512	10292301	9.778606	0.308451	-0.108580	-0.005920	0.001606	-0.000542			
17513	10292326	9.793162	0.289745	-0.113909	-0.005211	0.001357	-0.000931			
17514	10292351	9.798044	0.286723	-0.126391	-0.002256	0.002894	-0.001960	112.092209	-88.216003	28.972420
17515	10292376	9.828888	0.250320	-0.111244	-0.001428	-0.001167	-0.001857			
17516	10292401	9.831413	0.286187	-0.131348	-0.005972	0.003350	0.001706			
17517	10292426	9.801300	0.306153	-0.153729	-0.006212	0.002627	-0.000603			
17518	10292451	9.803004	0.281366	-0.148977	-0.002700	0.001080	0.002399	112.077103	-88.218422	28.986982
17519	10292476	9.812530	0.285891	-0.157625	-0.002456	0.003542	0.000866			
17520	10292501	9.822698	0.287730	-0.109269	-0.007388	0.000919	-0.006258			
17521	10292526	9.784590	0.295489	-0.123496	-0.007731	-0.002243	-0.002292			
17522	10292551	9.789732	0.279443	-0.153246	-0.004415	-0.001934	-0.003518	112.063904	-88.217545	29.000492
17523	10292576	9.806089	0.300873	-0.146579	-0.001194	-0.000255	-0.001465			
17524	10292601	9.812278	0.293545	-0.131310	-0.007427	-0.001717	-0.000045			
17525	10292626	9.804594	0.295800	-0.126901	-0.002788	0.001523	-0.000939			
17526	10292651	9.796880	0.259027	-0.114846	-0.006127	0.003728	-0.003931	112.045708	-88.218750	29.018019
17527	10292676	9.776853	0.308841	-0.132572	-0.008532	-0.001225	-0.002795			
17528	10292701	9.828226	0.278730	-0.138091	-0.004300	-0.001539	-0.002880			
17529	10292726	9.799494	0.288246	-0.132201	-0.004086	-0.000508	-0.006200			
17530	10292751	9.783648	0.299939	-0.135987	-0.004448	-0.002764	-0.000763	112.056847	-88.217545	29.006998
17531	10292776	9.815751	0.277305	-0.120321	-0.003600	-0.003138	0.000769			
17532	10292801	9.788179	0.293505	-0.084686	-0.002737	0.000170	0.000022			
17533	10292826	9.810965	0.285504	-0.133240	-0.001389	-0.004394	-0.000393			
17534	10292851	9.810774	0.296303	-0.124093	-0.006703	-0.000289	-0.002673	112.093567	-88.218094	28.970877
17535	10292876	9.789155	0.287423	-0.152287	-0.006691	-0.002739	-0.000757			
17536	10292901	9.807858	0.286345	-0.093944	0.000268	-0.002238	-0.003347			
17537	10292926	9.783159	0.303301	-0.140298	-0.004542	-0.005996	-0.000779			
17538	10292951	9.797196	0.288925	-0.147436	-0.010641	0.002675	-0.004379	112.119644	-88.217545	28.944744
17539	10292976	9.823600	0.312586	-0.152917	-0.001697	0.001346	-0.002933			
17540	10293001	9.785440	0.259317	-0.111996	-0.006604	-0.001583	-0.004344			
17541	10293026	9.811245	0.264703	-0.136077	-0.008231	-0.000702	-0.002027			
17542	10293051	9.807073	0.292653	-0.135127	-0.006126	-0.000542	-0.002609	112.111481	-88.217102	28.952646
17543	10293076	9.842406	0.277951	-0.197064	-0.003164	0.002868	-0.005361			
17544	10293101	9.806726	0.284616	-0.140356	-0.011799	0.000918	-0.001429			
17545	10293126	9.794683	0.274787	-0.096715	-0.008672	-0.000767	-0.000803			
17546	10293151	9.816133	0.293733	-0.138476	-0.004905	0.001687	-0.001188	112.081970	-88.217873	28.980032
17547	10293176	9.812683	0.299281	-0.130763	-0.003862	0.003187	-0.001186			
17548	10293201	9.777592	0.317563	-0.115332	-0.006376	-0.002539	-0.000949			
17549	10293226	9.802702	0.291397	-0.118833	-0.001428	-0.005364	-0.002968			
17550	10293251	9.804662	0.270731	-0.163287	-0.002590	0.005537	-0.001429	112.075584	-88.217651	28.987740
17551	10293276	9.809772	0.293741	-0.111146	-0.002106	-0.001822	-0.001091			
17552	10293301	9.814537	0.268069	-0.137506	-0.007726	0.001831	-0.000988			
17553	10293326	9.798583	0.287857	-0.138896	-0.002621	-0.000031	-0.003704			
17554	10293351	9.797949	0.274450	-0.163776	-0.006010	0.002247	-0.001377	112.061729	-88.217758	29.002199
17555	10293376	9.819672	0.245618	-0.151483	-0.005037	-0.000781	-0.004727			
17556	10293401	9.799205	0.270592	-0.125948	-0.006489	-0.001064	-0.002807			
17557	10293426	9.812586	0.294630	-0.106837	-0.005639	0.000511	-0.001065			
17558	10293451	9.799040	0.296616	-0.152849	-0.003907	-0.004190	-0.005260	112.067795	-88.217216	28.995167
17559	10293476	9.820555	0.282893	-0.139011	-0.002606	-0.000341	-0.001335			
17560	10293501	9.814757	0.279164	-0.117411	-0.006561	-0.000735	-0.000875			
17561	10293526	9.796628	0.285724	-0.125970	-0.008725	-0.003234	-0.002682			
17562	10293551	9.808061	0.296173	-0.148083	-0.004601	-0.002132	-0.002746	112.089088	-88.216774	28.973993
17563	10293576	9.779969	0.287526	-0.130630	0.002192	-0.000204	-0.004868			
17564	10293601	9.789231	0.312445	-0.139762	-0.001723	0.004062	-0.005220			
17565	10293626	9.809247	0.269889	-0.131743	-0.005446	-0.001821	-0.004992			
17566	10293651	9.821505	0.290213	-0.153850	-0.004716	-0.000310	0.000657	112.065697	-88.216225	28.998528
17567	10293676	9.788529	0.287606	-0.131164	-0.004634	0.001171	-0.001700			
17568	10293701	9.809497	0.288380	-0.132751	-0.007689	0.000271	-0.003813			
17569	10293726	9.791228	0.303391	-0.136428	-0.005007	0.002581	-0.005411			
17570	10293751	9.794807	0.296660	-0.162338	-0.004728	0.000142	-0.000237	112.035698	-88.215790	29.028776
17571	10293776	9.807455	0.292879	-0.121662	-0.007915	0.001830	0.000359			
17572	10293801	9.806215	0.282081	-0.130330	-0.004938	-0.001290	0.000466			
17573	10293826	9.813219	0.250196	-0.117876	-0.006466	-0.001700	-0.000885			
17574	10293851	9.811447	0.288492	-0.139001	-0.005083	-0.001231	-0.003059	112.046646	-88.217216	29.015985
17575	10293876	9.821740	0.294051	-0.121740	-0.001153	0.000325	-0.003776			
17576	10293901	9.817717	0.276578	-0.129366	-0.002533	0.001393	-0.004853			
17577	10293926	9.812292	0.278918	-0.103069	-0.003758	-0.004500	-0.003020			
17578	10293951	9.788269	0.271971	-0.133081	-0.000294	-0.000308	-0.001019	112.046356	-88.216446	29.017864
17579	10293976	9.804927	0.275596	-0.138431	-0.001673	-0.001489	-0.002502			
17580	10294001	9.808822	0.295277	-0.115441	0.001976	0.002313	-0.006911			
17581	10294026	9.792482	0.299457	-0.097659	-0.006469	-0.001508	-0.000563			
17582	10294051	9.793260	0.288973	-0.127820	-0.004452	0.001894	0.001377	112.035004	-88.216560	29.030466
17583	10294076	9.809765	0.297689	-0.118863	-0.004922	-0.004011	-0.002824			
17584	10294101	9.810440	0.285410	-0.125544	-0.006215	0.000365	-0.002538			
17585	10294126	9.812710	0.294000	-0.125522	-0.005937	-0.000213	-0.003320			
17586	10294151	9.776571	0.290740	-0.126790	-0.000644	0.000270	-0.003900	112.035896	-88.216118	29.029308
17587	10294176	9.800446	0.280890	-0.117265	-0.008027	0.003242	-0.002709			
17588	10294201	9.825389	0.259651	-0.102051	-0.009497	0.005023	-0.003855			
17589	10294226	9.813576	0.258713	-0.117911	-0.004321	-0.002824	0.000583			
17590	10294251	9.819113	0.278437	-0.127990	-0.002418	-0.002280	-0.001921	112.015503	-88.216118	29.049604
17591	10294276	9.813127	0.295288	-0.117413	-0.005728	-0.001049	-0.003125			
17592	10294301	9.813654	0.281708	-0.097757	-0.003108	-0.002487	-0.000639			
17593	10294326	9.816405	0.272004	-0.139869	-0.003277	0.004481	-0.006437			
17594	10294351	9.800537	0.294891	-0.160980	0.000860	-0.002870	-0.004500	112.006706	-88.215347	29.059259
17595	10294376	9.779946	0.312189	-0.100489	-0.000833	-0.001802	-0.002821			
17596	10294401	9.813777	0.289871	-0.133683	-0.005603	-0.000724	-0.003643			
17597	10294426	9.811406	0.295784	-0.148976	-0.003751	0.003508	-0.003426			
17598	10294451	9.797333	0.306121	-0.125971	0.001860	-0.001752	-0.001866	111.998314	-88.214912	29.069511
17599	10294476	9.779732	0.297199	-0.112460	-0.004882	-0.001293	-0.002548			
17600	10294501	9.805382	0.314384	-0.136064	-0.003685	-0.002487	0.001541			
17601	10294526	9.790689	0.305669	-0.131663	-0.006977	0.000420	0.000414			
17602	10294551	9.806119	0.292104	-0.132692	-0.006106	-0.000921	-0.002100	112.018646	-88.215897	29.048420
17603	10294576	9.809460	0.288183	-0.126010	-0.007053	-0.001188	0.002518			
17604	10294601	9.791951	0.292292	-0.155135	-0.004457	0.001495	-0.002219			
17605	10294626	9.806498	0.266221	-0.142275	0.000674	-0.001140	-0.006922			
17606	10294651	9.790538	0.310644	-0.116293	-0.003618	0.003381	-0.003938	111.997742	-88.215347	29.070593
17607	10294676	9.797953	0.296746	-0.131701	-0.004259	-0.000569	-0.002296			
17608	10294701	9.802170	0.303031	-0.132683	0.000751	0.000612	-0.004928			
17609	10294726	9.822104	0.275892	-0.144756	-0.002621	-0.000088	-0.004093			
17610	10294751	9.808999	0.287784	-0.127886	-0.001888	0.001480	-0.000748	111.979218	-88.215675	29.089844
17611	10294776	9.826986	0.284809	-0.103526	-0.006843	0.002035	-0.001632			
17612	10294801	9.824224	0.289975	-0.130933	-0.004452	-0.003035	-0.004742			
17613	10294826	9.835510	0.301448	-0.129479	-0.006773	0.000033	-0.002225			
17614	10294851	9.805216	0.290708	-0.139402	-0.006449	0.000113	0.002848	111.979645	-88.215897	29.089090
17615	10294876	9.796922	0.301432	-0.128388	-0.006284	-0.001644	-0.002804			
17616	10294901	9.819055	0.286546	-0.134672	-0.004649	-0.002371	0.002375			
17617	10294926	9.797194	0.293365	-0.157121	-0.005703	-0.001764	-0.003900			
17618	10294951	9.791689	0.295547	-0.118686	-0.004938	0.002716	-0.003235	111.987167	-88.215462	29.081726
17619	10294976	9.802440	0.317635	-0.130259	-0.005673	0.001539	-0.002918			
17620	10295001	9.803906	0.317742	-0.135624	-0.004688	-0.003549	-0.002690			
17621	10295026	9.798431	0.267113	-0.149894	-0.003193	0.000164	0.000271			
17622	10295051	9.827349	0.266223	-0.125599	-0.005914	0.000818	-0.005232	111.979805	-88.215897	29.087778
17623	10295076	9.789918	0.295288	-0.137931	-0.006627	-0.002867	-0.000887			
17624	10295101	9.811904	0.290870	-0.143274	-0.005819	0.000447	0.001311			
17625	10295126	9.816484	0.259905	-0.126974	-0.007476	-0.000109	-0.002286			
17626	10295151	9.805076	0.267189	-0.146579	-0.006215	0.000365	-0.003055	111.988182	-88.215462	29.079868
17627	10295176	9.794293	0.285332	-0.134061	-0.002044	0.000249	-0.002103			
17628	10295201	9.788971	0.303692	-0.155554	-0.006428	0.003073	-0.004773			
17629	10295226	9.784983	0.305562	-0.131141	-0.007679	0.000283	-0.001317			
17630	10295251	9.773225	0.293098	-0.130564	-0.001927	0.002640	-0.002344	111.950447	-88.215897	29.117527
17631	10295276	9.788029	0.279675	-0.108687	-0.003983	-0.001471	-0.003064			
17632	10295301	9.799073	0.310720	-0.110678	-0.000738	-0.005303	-0.007069			
17633	10295326	9.809011	0.286372	-0.128873	-0.001359	0.001100	0.000919			
17634	10295351	9.821031	0.277062	-0.127940	-0.009781	0.001720	-0.004320	111.951485	-88.215019	29.116810
17635	10295376	9.816731	0.277894	-0.128396	-0.004800	0.002727	0.000803			
17636	10295401	9.835643	0.292962	-0.133300	-0.005792	0.001277	-0.000361			
17637	10295426	9.802013	0.283203	-0.145114	-0.007389	0.001451	-0.000286			
17638	10295451	9.799314	0.306358	-0.140327	-0.004838	-0.000380	-0.000754	111.935303	-88.216225	29.132725
17639	10295476	9.816323	0.303283	-0.111188	-0.003450	0.000094	-0.001775			
17640	10295501	9.820572	0.289314	-0.154839	-0.000308	-0.002119	-0.001670			
17641	10295526	9.807356	0.273238	-0.141857	-0.003450	-0.001711	0.001103			
17642	10295551	9.786962	0.277905	-0.087545	-0.004582	-0.000511	-0.001587	111.954124	-88.217545	29.113548
17643	10295576	9.763930	0.306007	-0.116223	-0.002763	-0.003509	-0.000829			
17644	10295601	9.821910	0.284670	-0.129861	-0.003462	0.002550	-0.002794			
17645	10295626	9.793327	0.293653	-0.148905	-0.008139	0.002396	-0.004444			
17646	10295651	9.791641	0.299730	-0.117839	-0.003895	-0.004044	0.000192	111.959915	-88.216774	29.108774
17647	10295676	9.801733	0.271966	-0.154163	-0.008669	0.003362	-0.002392			
17648	10295701	9.785549	0.321786	-0.102866	-0.002739	0.001846	-0.002348			
17649	10295726	9.775093	0.296438	-0.131135	-0.004251	-0.003022	-0.001408			
17650	10295751	9.819598	0.262049	-0.174876	-0.006254	0.004123	-0.000019	111.929237	-88.217651	29.139145
17651	10295776	9.812289	0.288205	-0.121700	-0.001740	0.000964	-0.000882			
17652	10295801	9.812424	0.267579	-0.102489	-0.000691	0.003687	-0.006384			
17653	10295826	9.795782	0.309803	-0.114847	-0.006227	0.004883	-0.005591			
17654	10295851	9.798307	0.266799	-0.128915	-0.008410	-0.007363	-0.002447	111.901993	-88.216446	29.167400
17655	10295876	9.764788	0.319548	-0.127240	-0.004861	-0.001940	-0.004153			
17656	10295901	9.803406	0.300313	-0.173924	-0.000958	-0.001873	-0.002946			
17657	10295926	9.821445	0.287623	-0.138523	-0.006476	-0.001249	-0.000435			
17658	10295951	9.806363	0.285162	-0.081925	-0.001658	-0.003879	-0.000782	111.933334	-88.216774	29.135870
