// General information: 
//  MT Manager version: 2022.0.0 
//  XDA version: 2022.0.0 build 7085 rev 119802 built on 2022-11-08
// Device information: 
//  DeviceId: 037004D1
//  ProductCode: MTi-300-2A5G4
//  Firmware Version: 1.4.1
//  Hardware Version: 2.1.0
// Device settings: 
//  Filter Profile: general(39.16)
//  Option Flags: Orientation Smoother Disabled, Position/Velocity Smoother Disabled, Continuous Zero Rotation Update Disabled, AHS Disabled, ICC Disabled
// Coordinate system: ENU
PacketCounter	SampleTimeFine	Acc_X	Acc_Y	Acc_Z	Gyr_X	Gyr_Y	Gyr_Z	Roll	Pitch	Yaw
55638	7968651	-0.094254	-9.759660	-0.036661	-0.005534	-0.000049	-0.005342	-90.340446	0.615791	-75.968025
55639	7968676	-0.115229	-9.744890	-0.057147	-0.005117	-0.005211	-0.005369			
55640	7968701	-0.090475	-9.764033	-0.026614	-0.006655	-0.004973	-0.002164			
55641	7968726	-0.114094	-9.731601	-0.057625	-0.002961	-0.003733	0.004566			
55642	7968751	-0.080061	-9.764486	-0.020395	-0.002868	-0.000699	0.002462	-90.340118	0.616650	-75.966209
55643	7968776	-0.061852	-9.762162	-0.032999	-0.005695	-0.002959	-0.002930			
55644	7968801	-0.090526	-9.765678	-0.012260	-0.009502	0.000466	-0.002262			
55645	7968826	-0.104807	-9.758472	-0.029921	-0.007032	0.003028	-0.002760			
55646	7968851	-0.090823	-9.764268	-0.042911	-0.006683	-0.002265	-0.004008	-90.341377	0.615875	-75.966217
55647	7968876	-0.085909	-9.747225	-0.036698	-0.003910	-0.004466	0.001487			
55648	7968901	-0.111870	-9.765352	-0.019822	-0.008233	-0.001848	-0.007145			
55649	7968926	-0.119506	-9.767800	-0.021709	-0.009575	-0.001341	-0.002268			
55650	7968951	-0.113614	-9.747809	-0.020756	-0.004224	0.001727	0.001773	-90.342247	0.615917	-75.965675
55651	7968976	-0.097169	-9.758240	-0.039023	-0.003666	-0.001749	0.001505			
55652	7969001	-0.129050	-9.764565	-0.023585	-0.008595	-0.006364	-0.002933			
55653	7969026	-0.108886	-9.772639	-0.037580	-0.008270	-0.000283	-0.000727			
55654	7969051	-0.105673	-9.776741	-0.014982	-0.001152	-0.002348	0.002199	-90.342453	0.616857	-75.964394
55655	7969076	-0.113813	-9.744830	-0.060467	0.000259	-0.005050	-0.003785			
55656	7969101	-0.107283	-9.775745	-0.050444	-0.002959	-0.000128	-0.001186			
55657	7969126	-0.143013	-9.752853	-0.024909	-0.005838	0.001891	-0.003023			
55658	7969151	-0.110911	-9.737003	-0.011587	-0.001945	0.000079	-0.002275	-90.341110	0.616317	-75.964241
55659	7969176	-0.106156	-9.775424	-0.007827	-0.003405	0.003807	-0.002186			
55660	7969201	-0.104825	-9.760886	-0.027124	-0.010881	0.001548	-0.000326			
55661	7969226	-0.099606	-9.771549	-0.007908	-0.010468	-0.003481	0.001958			
55662	7969251	-0.108659	-9.748352	-0.043270	-0.003104	-0.003684	-0.001268	-90.342232	0.616992	-75.964272
55663	7969276	-0.105841	-9.749444	-0.030855	-0.003095	-0.002265	-0.004853			
55664	7969301	-0.104784	-9.763360	-0.020831	-0.008504	-0.000808	-0.000788			
55665	7969326	-0.119007	-9.757068	-0.039881	-0.004615	-0.000682	-0.005352			
55666	7969351	-0.108157	-9.756422	-0.042363	-0.006440	0.000982	0.001143	-90.342628	0.616512	-75.964165
55667	7969376	-0.110190	-9.751558	-0.020712	-0.002170	0.001246	-0.001758			
55668	7969401	-0.111193	-9.787631	-0.020770	-0.005983	0.000344	-0.000471			
55669	7969426	-0.085205	-9.798323	-0.045359	-0.009234	-0.000170	-0.001945			
55670	7969451	-0.100975	-9.767580	-0.020401	-0.011885	0.001009	0.000449	-90.343948	0.616892	-75.964737
55671	7969476	-0.100737	-9.744686	-0.028433	-0.003290	-0.003618	0.000915			
55672	7969501	-0.097733	-9.762599	-0.002173	-0.011191	-0.005448	-0.005168			
55673	7969526	-0.105446	-9.784712	-0.020834	-0.008881	-0.001399	-0.004642			
55674	7969551	-0.118789	-9.775967	-0.045139	-0.003645	0.001281	-0.002076	-90.344963	0.616242	-75.963692
55675	7969576	-0.125903	-9.740941	-0.045662	-0.007278	0.000831	-0.002195			
55676	7969601	-0.117676	-9.758284	-0.021695	-0.007761	0.001591	-0.004946			
55677	7969626	-0.119517	-9.760899	-0.037905	-0.001395	-0.004940	0.001098			
55678	7969651	-0.104947	-9.751397	-0.026970	-0.002654	-0.001539	0.000025	-90.344826	0.616329	-75.963394
55679	7969676	-0.091038	-9.757352	-0.029428	-0.000803	-0.001706	-0.002287			
55680	7969701	-0.092052	-9.740050	-0.045260	-0.002308	-0.000636	-0.004464			
55681	7969726	-0.123894	-9.761794	-0.014487	-0.006282	-0.002711	-0.004393			
55682	7969751	-0.087703	-9.758240	-0.030450	-0.004809	-0.002415	0.000285	-90.343979	0.615719	-75.962624
55683	7969776	-0.107694	-9.756287	-0.020208	-0.001352	-0.002694	-0.004406			
55684	7969801	-0.099566	-9.760845	-0.025561	-0.000365	-0.001243	-0.001390			
55685	7969826	-0.082423	-9.766145	-0.006038	-0.004172	-0.000614	-0.007024			
55686	7969851	-0.090841	-9.773456	-0.031456	-0.011553	0.002432	-0.003263	-90.343620	0.614338	-75.962570
55687	7969876	-0.116104	-9.728642	-0.035147	-0.005592	-0.002322	-0.003678			
55688	7969901	-0.101018	-9.754067	-0.035693	-0.006150	0.003617	-0.002173			
55689	7969926	-0.093719	-9.762311	-0.049131	-0.006022	0.003621	-0.000378			
55690	7969951	-0.118669	-9.743643	-0.048522	-0.006773	-0.001115	-0.003098	-90.344276	0.613930	-75.963394
55691	7969976	-0.110912	-9.731573	-0.025509	-0.000426	0.000943	0.000493			
55692	7970001	-0.087681	-9.749963	-0.044840	-0.005114	-0.001217	-0.003804			
55693	7970026	-0.106099	-9.776791	-0.011673	-0.005256	-0.002834	-0.003554			
55694	7970051	-0.099576	-9.758931	-0.026575	-0.006029	-0.002390	-0.002205	-90.343834	0.613556	-75.962875
55695	7970076	-0.092287	-9.759553	-0.042381	-0.002573	-0.002855	-0.005358			
55696	7970101	-0.113944	-9.738737	-0.055199	0.000027	-0.001706	-0.001833			
55697	7970126	-0.105226	-9.766144	-0.025103	-0.005537	-0.001605	-0.000983			
55698	7970151	-0.091978	-9.754902	-0.034708	0.000495	-0.000077	-0.001891	-90.342056	0.613054	-75.962265
55699	7970176	-0.119188	-9.754032	-0.021197	-0.004989	-0.002894	-0.002339			
55700	7970201	-0.106931	-9.777379	-0.036098	-0.003004	-0.000979	-0.001693			
55701	7970226	-0.112968	-9.758705	-0.021222	-0.004235	0.001842	-0.000775			
55702	7970251	-0.098858	-9.734547	-0.038064	-0.003465	-0.002538	-0.001574	-90.341415	0.613071	-75.961845
55703	7970276	-0.113960	-9.751958	-0.028926	-0.007844	-0.001642	-0.000656			
55704	7970301	-0.111795	-9.778273	-0.012653	-0.008507	-0.002889	-0.001691			
55705	7970326	-0.106685	-9.799343	-0.026996	-0.004432	-0.002426	-0.002021			
55706	7970351	-0.115238	-9.759480	-0.034127	-0.004795	-0.000820	-0.002521	-90.342232	0.613023	-75.961021
55707	7970376	-0.108390	-9.744805	-0.027050	-0.008447	-0.006816	0.002396			
55708	7970401	-0.083085	-9.781011	-0.027635	-0.008881	0.000525	-0.005516			
55709	7970426	-0.101596	-9.761299	0.002717	-0.002944	0.001083	-0.005147			
55710	7970451	-0.104420	-9.763986	-0.010223	-0.003026	-0.004330	-0.000301	-90.342705	0.612736	-75.959938
55711	7970476	-0.095497	-9.774834	-0.038544	-0.004782	0.000732	-0.000787			
55712	7970501	-0.119559	-9.757198	-0.031672	-0.001909	-0.001554	-0.006440			
55713	7970526	-0.109254	-9.782328	-0.024655	-0.009382	-0.001745	-0.004698			
55714	7970551	-0.102306	-9.772409	-0.016485	-0.006007	0.002706	-0.006792	-90.343010	0.610986	-75.960220
55715	7970576	-0.107278	-9.760677	-0.011732	-0.009096	0.001560	-0.002116			
55716	7970601	-0.081814	-9.770483	-0.032386	-0.002347	-0.003028	0.002714			
55717	7970626	-0.106166	-9.762228	-0.033712	-0.005095	0.002535	-0.002757			
55718	7970651	-0.106178	-9.762753	-0.030322	-0.003941	0.000426	-0.001551	-90.343071	0.611401	-75.960693
55719	7970676	-0.116466	-9.735668	-0.041336	-0.005640	-0.000378	-0.002009			
55720	7970701	-0.086681	-9.762043	-0.030467	-0.004795	-0.001076	-0.001813			
55721	7970726	-0.081018	-9.794294	-0.025707	-0.005816	-0.001357	-0.003292			
55722	7970751	-0.088720	-9.754176	-0.018515	-0.006454	-0.001110	-0.003482	-90.343475	0.610800	-75.960388
55723	7970776	-0.082897	-9.760244	-0.020422	-0.004734	-0.003345	-0.005676			
55724	7970801	-0.101000	-9.760447	-0.021724	-0.003111	-0.001699	-0.004646			
55725	7970826	-0.100997	-9.790981	-0.041903	-0.006381	0.000638	-0.001097			
55726	7970851	-0.099795	-9.746271	-0.016504	-0.004645	-0.001724	-0.002721	-90.343307	0.609712	-75.959785
55727	7970876	-0.098424	-9.740406	-0.027021	-0.003770	-0.000536	0.002417			
55728	7970901	-0.098842	-9.770886	-0.050563	-0.007595	-0.001381	-0.001238			
55729	7970926	-0.102390	-9.769053	-0.018885	-0.006190	-0.001417	-0.001176			
55730	7970951	-0.106997	-9.776181	-0.021708	-0.003670	-0.000219	-0.001431	-90.343506	0.610436	-75.959579
55731	7970976	-0.113258	-9.768981	-0.032268	-0.007279	-0.003375	-0.000603			
55732	7971001	-0.097208	-9.766107	-0.020809	-0.005619	0.003506	0.003146			
55733	7971026	-0.123549	-9.784267	-0.033212	-0.009258	0.000852	0.001989			
55734	7971051	-0.122184	-9.766960	-0.047558	-0.008060	-0.000945	-0.003155	-90.344978	0.611568	-75.959862
55735	7971076	-0.123420	-9.762657	-0.019800	-0.007086	-0.001308	0.000106			
55736	7971101	-0.109111	-9.763885	-0.020753	-0.005539	0.002791	0.000194			
55737	7971126	-0.119671	-9.754955	-0.024042	-0.005041	-0.001144	-0.001109			
55738	7971151	-0.108749	-9.780653	-0.040865	-0.002687	0.001158	-0.002898	-90.345047	0.611964	-75.960342
55739	7971176	-0.115284	-9.754725	-0.035108	-0.004891	0.002018	-0.002827			
55740	7971201	-0.096955	-9.773409	-0.039021	-0.004366	-0.004491	-0.001904			
55741	7971226	-0.121446	-9.764880	-0.027952	-0.008246	-0.003134	0.000043			
55742	7971251	-0.104903	-9.748985	-0.029474	-0.007568	-0.002553	-0.004704	-90.345764	0.611546	-75.959442
55743	7971276	-0.090838	-9.775024	-0.021318	-0.003088	-0.000469	-0.002912			
55744	7971301	-0.094004	-9.777678	-0.036645	-0.006847	-0.001119	-0.004570			
55745	7971326	-0.088566	-9.761596	-0.029490	-0.004549	-0.002754	-0.002725			
55746	7971351	-0.114363	-9.747483	-0.042763	-0.003569	-0.001515	-0.006378	-90.345497	0.610101	-75.958878
55747	7971376	-0.103877	-9.758104	-0.022228	-0.004728	-0.003275	-0.004713			
55748	7971401	-0.136352	-9.758627	-0.014947	-0.010154	0.002708	0.000525			
55749	7971426	-0.105207	-9.753048	-0.043363	-0.009847	-0.003435	-0.005920			
55750	7971451	-0.099438	-9.767933	-0.027506	-0.004582	-0.001593	-0.003427	-90.346817	0.609097	-75.958313
55751	7971476	-0.102719	-9.777439	-0.029443	-0.008230	0.000484	0.000572			
55752	7971501	-0.097752	-9.762979	-0.008848	-0.006208	-0.000715	-0.000462			
55753	7971526	-0.108558	-9.757998	-0.032695	-0.000542	0.002024	-0.005852			
55754	7971551	-0.098824	-9.754890	-0.011227	-0.003876	-0.007643	0.001670	-90.346642	0.609451	-75.957756
55755	7971576	-0.084933	-9.783721	-0.038092	-0.003147	-0.002468	-0.000870			
55756	7971601	-0.107737	-9.754801	-0.023538	0.001019	0.003611	-0.001876			
55757	7971626	-0.093218	-9.764816	-0.040008	-0.002013	-0.002193	-0.003824			
55758	7971651	-0.119016	-9.775448	-0.016374	-0.004913	-0.001007	0.000365	-90.345108	0.609502	-75.957748
55759	7971676	-0.092211	-9.775341	-0.033729	-0.000679	-0.001451	0.000346			
55760	7971701	-0.102449	-9.761622	-0.007800	-0.002138	-0.002663	-0.009011			
55761	7971726	-0.095121	-9.776438	-0.026096	-0.005902	0.000006	0.001396			
55762	7971751	-0.136604	-9.731997	-0.018171	-0.001836	0.000517	-0.004318	-90.343742	0.608779	-75.957497
55763	7971776	-0.110443	-9.767140	-0.025487	0.001478	0.000969	-0.004321			
55764	7971801	-0.096162	-9.772325	-0.017003	-0.005999	0.002912	-0.000639			
55765	7971826	-0.097322	-9.770738	0.002677	-0.002912	-0.003229	0.005344			
55766	7971851	-0.122140	-9.747894	-0.021695	-0.005369	-0.003217	-0.002792	-90.342720	0.609358	-75.957390
55767	7971876	-0.107100	-9.745187	-0.001109	-0.004430	-0.001971	0.001320			
55768	7971901	-0.102598	-9.781750	-0.026015	-0.002572	-0.000724	-0.006564			
55769	7971926	-0.088426	-9.777802	-0.025184	-0.004689	-0.000036	0.000107			
55770	7971951	-0.096197	-9.773458	-0.004100	-0.008313	-0.005211	-0.003114	-90.342720	0.609114	-75.956528
55771	7971976	-0.104926	-9.740215	-0.044706	-0.001620	-0.004317	-0.002548			
55772	7972001	-0.082160	-9.779199	-0.021352	-0.005442	-0.003099	-0.006317			
55773	7972026	-0.078781	-9.774981	-0.046372	-0.009531	-0.005232	-0.002149			
55774	7972051	-0.095523	-9.768571	-0.044259	-0.001585	-0.003678	-0.005363	-90.342445	0.607710	-75.954437
55775	7972076	-0.115270	-9.738840	-0.050472	-0.006765	0.002168	-0.008783			
55776	7972101	-0.117482	-9.775283	-0.026891	-0.002345	0.000513	-0.003614			
55777	7972126	-0.118182	-9.752883	-0.033643	-0.003240	0.002438	-0.003724			
55778	7972151	-0.139203	-9.736307	-0.048916	-0.005911	-0.006530	-0.005814	-90.342209	0.605497	-75.954529
55779	7972176	-0.102237	-9.767355	-0.036096	-0.003918	-0.004750	-0.004530			
55780	7972201	-0.106141	-9.766030	-0.032763	-0.002815	0.005616	-0.001332			
55781	7972226	-0.088446	-9.779364	-0.015526	-0.003363	0.002500	-0.000778			
55782	7972251	-0.104740	-9.760364	-0.030387	-0.004010	-0.005914	-0.005504	-90.341377	0.604695	-75.954414
55783	7972276	-0.109217	-9.757704	-0.021271	-0.007978	0.000942	0.000124			
55784	7972301	-0.115331	-9.758307	-0.018828	-0.005557	0.000648	-0.003341			
55785	7972326	-0.119849	-9.777864	-0.014922	-0.002070	-0.000192	-0.004320			
55786	7972351	-0.112280	-9.739804	-0.015534	-0.006655	-0.000657	-0.001620	-90.341705	0.604305	-75.954781
55787	7972376	-0.124395	-9.750607	-0.032647	-0.005659	0.001940	-0.004618			
55788	7972401	-0.123294	-9.767222	-0.031226	-0.003588	0.003602	-0.002117			
55789	7972426	-0.120721	-9.752685	-0.017351	-0.005826	0.003889	0.000651			
55790	7972451	-0.111869	-9.717102	-0.041365	-0.003453	-0.003320	-0.004779	-90.341499	0.603679	-75.955910
55791	7972476	-0.123639	-9.742075	-0.031200	-0.001638	-0.003532	0.001496			
55792	7972501	-0.088847	-9.780561	-0.030885	-0.001848	0.001244	0.000493			
55793	7972526	-0.104625	-9.750427	0.003619	-0.007987	0.002933	-0.004862			
55794	7972551	-0.114188	-9.770435	-0.030817	-0.007617	-0.000866	-0.000589	-90.341370	0.604119	-75.956123
55795	7972576	-0.122887	-9.768414	-0.014960	-0.005797	0.002588	-0.000255			
55796	7972601	-0.094624	-9.773403	-0.037563	-0.003663	-0.000143	0.000814			
55797	7972626	-0.103495	-9.781957	-0.044282	-0.006387	0.000902	-0.000839			
55798	7972651	-0.096058	-9.765800	-0.039933	-0.002101	0.000773	-0.003673	-90.341118	0.604462	-75.957008
55799	7972676	-0.127623	-9.767268	-0.031175	-0.002003	0.000279	0.003313			
55800	7972701	-0.107341	-9.779753	-0.036602	-0.006320	-0.001821	-0.005405			
55801	7972726	-0.096437	-9.776217	-0.041870	-0.001135	0.000933	0.000617			
55802	7972751	-0.090903	-9.762889	-0.039993	-0.003865	-0.003837	0.000215	-90.340157	0.605231	-75.956688
55803	7972776	-0.091925	-9.763701	-0.018477	-0.006810	0.000112	-0.004059			
55804	7972801	-0.095051	-9.780699	-0.026580	-0.005160	0.004800	-0.001721			
55805	7972826	-0.097022	-9.762774	-0.051992	-0.006770	0.001025	-0.000329			
55806	7972851	-0.115035	-9.738541	-0.038478	-0.005801	-0.003675	-0.001825	-90.340813	0.605011	-75.957275
55807	7972876	-0.092981	-9.750302	-0.027078	-0.005372	-0.001223	-0.004253			
55808	7972901	-0.089911	-9.754099	-0.055342	-0.001910	-0.001231	-0.004777			
55809	7972926	-0.105683	-9.766145	-0.025051	-0.005358	-0.003484	-0.003491			
55810	7972951	-0.091044	-9.762669	-0.023726	-0.003542	0.000311	0.002863	-90.340286	0.604562	-75.956741
55811	7972976	-0.078160	-9.756809	-0.024755	-0.005209	-0.001796	-0.000474			
55812	7973001	-0.108297	-9.751356	-0.032720	-0.001320	0.001055	0.001776			
55813	7973026	-0.103257	-9.763974	-0.040395	-0.002950	0.001670	-0.002261			
55814	7973051	-0.085054	-9.754812	-0.005072	-0.004420	-0.002423	0.001891	-90.339386	0.605625	-75.956779
55815	7973076	-0.094196	-9.761411	-0.046221	-0.003542	0.003983	-0.002308			
55816	7973101	-0.095340	-9.761292	-0.023696	-0.003585	-0.002600	0.000353			
55817	7973126	-0.101949	-9.769787	-0.000627	-0.002521	-0.004339	-0.005302			
55818	7973151	-0.117688	-9.755689	-0.036039	-0.002320	-0.002322	-0.000550	-90.338249	0.605444	-75.956314
55819	7973176	-0.108041	-9.759416	-0.032749	-0.003956	0.002614	-0.006287			
55820	7973201	-0.105689	-9.758396	-0.035610	-0.002505	0.001347	-0.004950			
55821	7973226	-0.094061	-9.769930	-0.047240	-0.006245	0.000186	-0.003216			
55822	7973251	-0.100915	-9.753813	-0.051930	-0.003017	0.001533	-0.003988	-90.337662	0.603737	-75.957382
55823	7973276	-0.114114	-9.741158	-0.021701	-0.006586	-0.003049	-0.004132			
55824	7973301	-0.073417	-9.794140	-0.030056	-0.005271	-0.002183	-0.001378			
55825	7973326	-0.118173	-9.726257	-0.006361	-0.006373	0.002377	-0.005834			
55826	7973351	-0.116192	-9.749733	-0.052356	-0.006814	0.000113	-0.002506	-90.338394	0.602664	-75.957260
55827	7973376	-0.120377	-9.761177	-0.052371	-0.006218	-0.002515	-0.000027			
55828	7973401	-0.100283	-9.784126	-0.024165	-0.005238	-0.004824	0.002588			
55829	7973426	-0.109806	-9.789240	-0.006759	0.000001	-0.000933	-0.002344			
55830	7973451	-0.123376	-9.756811	-0.029318	-0.004624	-0.002564	-0.005351	-90.337830	0.602885	-75.955978
55831	7973476	-0.106795	-9.748906	-0.036642	-0.007018	-0.003445	-0.001183			
55832	7973501	-0.105172	-9.769101	-0.017436	-0.004974	-0.001606	-0.006115			
55833	7973526	-0.124323	-9.748918	-0.049498	-0.008142	0.001642	-0.002691			
55834	7973551	-0.112942	-9.725105	-0.015007	-0.007351	-0.003058	-0.002077	-90.338905	0.602084	-75.955345
55835	7973576	-0.109323	-9.748334	-0.013582	-0.003581	0.001211	-0.002126			
55836	7973601	-0.119538	-9.770828	-0.009669	-0.003503	-0.003251	-0.000934			
55837	7973626	-0.092107	-9.795787	0.000641	-0.009629	-0.002398	-0.005594			
55838	7973651	-0.104362	-9.767753	-0.010609	0.001688	-0.003615	-0.001460	-90.338188	0.601578	-75.954414
55839	7973676	-0.116966	-9.739608	-0.032184	-0.001138	-0.000747	0.002341			
55840	7973701	-0.106610	-9.769048	-0.022204	-0.002743	-0.001301	-0.003871			
55841	7973726	-0.108553	-9.765137	-0.031850	-0.009170	-0.001989	0.000751			
55842	7973751	-0.094192	-9.774667	-0.016995	-0.004007	-0.001518	-0.001757	-90.337761	0.602159	-75.953896
55843	7973776	-0.125234	-9.761524	-0.033177	-0.007902	-0.003584	0.000678			
55844	7973801	-0.124007	-9.757501	-0.015448	-0.006835	-0.003172	-0.000025			
55845	7973826	-0.090188	-9.761355	-0.015563	-0.004117	0.002761	0.005639			
55846	7973851	-0.111948	-9.759415	-0.036542	-0.005333	-0.001857	0.001390	-90.338364	0.604203	-75.953346
55847	7973876	-0.104603	-9.774608	-0.029913	-0.006986	-0.002536	-0.002591			
55848	7973901	-0.118382	-9.764892	-0.054692	0.000778	0.000833	-0.002141			
55849	7973926	-0.121922	-9.759569	-0.034634	-0.007257	-0.001827	-0.000207			
55850	7973951	-0.132120	-9.751452	-0.014900	-0.004581	0.000477	-0.003669	-90.338089	0.603889	-75.953156
55851	7973976	-0.128420	-9.726681	-0.048911	-0.002903	-0.000271	-0.003609			
55852	7974001	-0.089456	-9.764809	-0.037620	-0.003044	0.002508	-0.002640			
55853	7974026	-0.114750	-9.730280	-0.019782	-0.005287	0.004861	-0.001974			
55854	7974051	-0.101641	-9.752459	-0.016962	-0.003384	-0.000598	0.000359	-90.337357	0.603686	-75.954391
55855	7974076	-0.116148	-9.760477	-0.032185	-0.004084	0.000608	-0.004308			
55856	7974101	-0.084970	-9.789278	-0.016084	-0.004758	-0.002502	-0.004710			
55857	7974126	-0.079765	-9.777649	-0.027609	-0.005880	-0.003560	-0.005549			
55858	7974151	-0.094075	-9.747595	-0.018912	-0.003414	-0.002082	-0.001185	-90.337097	0.602355	-75.953560
55859	7974176	-0.111955	-9.757095	-0.032260	-0.006744	-0.004083	-0.002214			
55860	7974201	-0.109857	-9.771771	-0.032684	-0.002797	-0.001499	-0.003174			
55861	7974226	-0.137613	-9.763284	-0.021542	-0.004257	-0.004108	-0.003757			
55862	7974251	-0.117804	-9.746617	-0.039816	-0.000221	0.002702	0.001523	-90.336227	0.602207	-75.952835
55863	7974276	-0.104293	-9.768545	-0.021744	-0.003891	0.001015	0.000371			
55864	7974301	-0.103244	-9.767463	-0.030425	-0.006506	-0.005826	-0.003825			
55865	7974326	-0.097393	-9.757413	-0.062520	-0.004724	-0.003667	-0.006898			
55866	7974351	-0.120520	-9.745528	-0.050941	-0.004800	-0.003152	-0.006640	-90.336205	0.600724	-75.951416
55867	7974376	-0.108531	-9.761256	-0.037048	-0.004074	0.000550	-0.002064			
55868	7974401	-0.094496	-9.781962	-0.036703	-0.006303	-0.001682	0.000425			
55869	7974426	-0.090136	-9.764121	-0.020812	-0.003597	0.000446	0.004213			
55870	7974451	-0.122053	-9.755492	-0.021711	-0.009860	0.001679	-0.001919	-90.336784	0.601737	-75.951851
55871	7974476	-0.107151	-9.757604	-0.026047	-0.002891	0.003216	-0.006349			
55872	7974501	-0.100246	-9.783747	-0.017416	-0.002955	-0.004861	-0.005496			
55873	7974526	-0.106561	-9.772289	-0.027489	-0.006633	-0.007761	-0.001976			
55874	7974551	-0.084628	-9.759758	0.008867	-0.002584	-0.003675	0.003742	-90.336052	0.601242	-75.950241
55875	7974576	-0.090430	-9.755778	0.023235	-0.006366	-0.007623	0.002380			
55876	7974601	-0.099534	-9.756721	0.046345	-0.000253	-0.009599	-0.007266			
55877	7974626	-0.048794	-9.757394	0.070060	-0.001018	-0.017543	-0.000313			
55878	7974651	-0.093456	-9.735435	0.087980	-0.003023	-0.025076	-0.001185	-90.334648	0.601303	-75.941940
55879	7974676	-0.051983	-9.753391	0.116014	-0.008047	-0.038789	0.000294			
55880	7974701	-0.026609	-9.772868	0.137473	-0.004973	-0.040999	-0.000821			
55881	7974726	-0.028964	-9.752007	0.167674	-0.003809	-0.053641	0.000522			
55882	7974751	-0.021929	-9.736618	0.160432	-0.007769	-0.073026	-0.000985	-90.334984	0.602272	-75.912636
55883	7974776	-0.007032	-9.776158	0.151302	-0.004610	-0.084481	-0.004585			
55884	7974801	-0.022052	-9.783347	0.112518	-0.004268	-0.097384	0.001311			
55885	7974826	-0.075071	-9.776204	0.037624	-0.002199	-0.106055	0.004281			
55886	7974851	-0.107103	-9.758896	0.027222	-0.001900	-0.107607	0.002734	-90.333382	0.604068	-75.856262
55887	7974876	-0.076162	-9.744775	-0.002659	0.000830	-0.110918	0.004113			
55888	7974901	-0.095575	-9.750664	-0.005515	-0.007783	-0.112173	0.001122			
55889	7974926	-0.142886	-9.775023	-0.001372	-0.002182	-0.113499	-0.001653			
55890	7974951	-0.130285	-9.745657	-0.019160	-0.001910	-0.116012	-0.001156	-90.331436	0.605711	-75.791718
55891	7974976	-0.112125	-9.756305	-0.084603	-0.012018	-0.107989	-0.002049			
55892	7975001	-0.155849	-9.777552	-0.126435	-0.006479	-0.111647	-0.007017			
55893	7975026	-0.135166	-9.767477	-0.116962	-0.005762	-0.099021	-0.000922			
55894	7975051	-0.121165	-9.747108	-0.103535	-0.000533	-0.096296	-0.002460	-90.331512	0.605198	-75.732513
55895	7975076	-0.144350	-9.767570	-0.087147	-0.000851	-0.092417	-0.003281			
55896	7975101	-0.150832	-9.739979	-0.097171	-0.001180	-0.083512	-0.002708			
55897	7975126	-0.129170	-9.734379	-0.073917	-0.007558	-0.084263	-0.000843			
55898	7975151	-0.123226	-9.716452	-0.061898	-0.000975	-0.081563	-0.000526	-90.329666	0.605347	-75.683868
55899	7975176	-0.102776	-9.751708	-0.066722	-0.000639	-0.080338	-0.002505			
55900	7975201	-0.093809	-9.742933	-0.075480	-0.003585	-0.081998	0.001718			
55901	7975226	-0.116124	-9.760313	-0.042826	-0.010274	-0.083025	-0.000766			
55902	7975251	-0.089691	-9.751774	-0.021346	-0.004895	-0.075112	-0.003175	-90.329086	0.605868	-75.638245
55903	7975276	-0.080864	-9.774966	-0.017568	-0.007567	-0.075679	-0.003365			
55904	7975301	-0.154696	-9.774263	-0.092420	-0.002532	-0.075135	-0.004205			
55905	7975326	-0.152194	-9.772299	-0.126002	-0.006738	-0.063059	-0.001305			
55906	7975351	-0.155363	-9.774960	-0.140838	-0.006010	-0.059626	-0.002442	-90.329079	0.605393	-75.599312
55907	7975376	-0.151761	-9.758413	-0.133657	-0.003470	-0.050803	-0.005031			
55908	7975401	-0.136073	-9.757215	-0.137065	-0.003937	-0.043765	-0.002751			
55909	7975426	-0.159570	-9.761884	-0.099573	-0.002711	-0.037993	-0.004457			
55910	7975451	-0.151011	-9.768105	-0.088588	-0.001441	-0.037320	-0.001444	-90.327621	0.604503	-75.575249
55911	7975476	-0.161758	-9.740177	-0.092847	-0.001465	-0.026473	-0.005743			
55912	7975501	-0.122530	-9.757698	-0.094936	-0.001211	-0.026140	-0.001189			
55913	7975526	-0.108327	-9.736932	-0.044680	-0.000277	-0.025354	-0.002731			
55914	7975551	-0.124592	-9.735884	-0.033591	-0.000700	-0.022006	-0.003991	-90.325142	0.603573	-75.561218
55915	7975576	-0.148445	-9.744175	-0.007169	-0.007203	-0.026961	-0.004701			
55916	7975601	-0.101658	-9.739817	-0.037578	-0.005808	-0.026162	-0.000732			
55917	7975626	-0.091039	-9.739037	0.014603	-0.004123	-0.020836	-0.003912			
55918	7975651	-0.076002	-9.768083	0.033288	-0.002237	-0.030302	-0.004287	-90.324905	0.602628	-75.546539
55919	7975676	-0.063412	-9.765704	0.074407	-0.004488	-0.031890	-0.003718			
55920	7975701	-0.039807	-9.770221	0.108880	0.002503	-0.042680	-0.001360			
55921	7975726	-0.030548	-9.768307	0.146185	-0.000218	-0.051959	0.000326			
55922	7975751	-0.002712	-9.761342	0.179053	-0.006606	-0.064602	0.001685	-90.323036	0.603265	-75.519417
55923	7975776	-0.045203	-9.741661	0.160530	-0.008084	-0.077170	-0.000748			
55924	7975801	-0.053350	-9.749939	0.105962	-0.004092	-0.095062	-0.002712			
55925	7975826	-0.076589	-9.735872	0.067271	-0.005375	-0.097026	-0.003871			
55926	7975851	-0.052175	-9.734732	0.043250	-0.001024	-0.105348	-0.002837	-90.322266	0.603042	-75.466042
55927	7975876	-0.070570	-9.752959	0.041870	-0.004782	-0.110118	-0.001571			
55928	7975901	-0.102049	-9.781694	0.033373	-0.004841	-0.114197	-0.000824			
55929	7975926	-0.096432	-9.760601	0.023735	-0.006025	-0.116099	-0.009099			
55930	7975951	-0.092731	-9.744967	-0.002579	-0.003839	-0.128654	-0.005965	-90.321518	0.601852	-75.399124
55931	7975976	-0.090283	-9.774458	-0.027080	-0.004157	-0.126588	-0.005248			
55932	7976001	-0.105477	-9.743815	-0.026960	-0.004835	-0.127247	-0.003259			
55933	7976026	-0.099023	-9.764558	-0.029897	-0.002189	-0.123902	-0.003254			
55934	7976051	-0.089633	-9.762502	-0.001673	-0.005251	-0.128548	-0.005642	-90.320274	0.600697	-75.326897
55935	7976076	-0.075309	-9.755403	0.041925	0.000437	-0.127859	-0.000978			
55936	7976101	-0.083770	-9.775109	-0.010829	-0.004774	-0.137386	-0.000823			
55937	7976126	-0.143782	-9.786829	-0.068548	-0.008820	-0.128727	-0.000498			
55938	7976151	-0.152214	-9.771917	-0.119183	-0.004295	-0.126268	-0.002930	-90.319099	0.601291	-75.252617
55939	7976176	-0.120723	-9.757904	-0.080109	-0.004721	-0.122589	-0.001761			
55940	7976201	-0.094379	-9.763856	-0.010692	-0.001875	-0.121507	-0.002532			
55941	7976226	-0.069170	-9.739315	0.019376	0.000535	-0.120619	-0.000553			
55942	7976251	-0.085821	-9.745884	0.030917	0.000149	-0.122368	0.000465	-90.316360	0.601974	-75.183113
55943	7976276	-0.091749	-9.719156	0.017024	-0.004344	-0.126463	-0.003003			
55944	7976301	-0.085901	-9.763341	-0.006028	-0.007826	-0.131878	-0.000845			
55945	7976326	-0.115872	-9.764067	-0.014527	-0.007963	-0.133097	0.005433			
55946	7976351	-0.127745	-9.752589	-0.029688	-0.001213	-0.132214	-0.000152	-90.315781	0.603528	-75.108383
55947	7976376	-0.117859	-9.761786	-0.071925	-0.001934	-0.138366	-0.001147			
55948	7976401	-0.162114	-9.768761	-0.054920	-0.000443	-0.128782	-0.004563			
55949	7976426	-0.084439	-9.709972	-0.019856	0.001262	-0.130180	-0.006758			
55950	7976451	-0.058593	-9.750181	0.024103	-0.001793	-0.130352	-0.000598	-90.312553	0.602994	-75.033073
55951	7976476	-0.085369	-9.748857	0.040966	-0.003636	-0.134711	-0.000037			
55952	7976501	-0.088861	-9.792755	-0.008835	-0.005519	-0.144038	0.004341			
55953	7976526	-0.113371	-9.780303	-0.004802	0.000836	-0.146499	0.007136			
55954	7976551	-0.132578	-9.792519	-0.090038	0.001970	-0.144887	-0.004274	-90.309761	0.605390	-74.951706
55955	7976576	-0.162333	-9.735031	-0.087986	0.001922	-0.139274	-0.007379			
55956	7976601	-0.170093	-9.760117	-0.099007	-0.003403	-0.130323	-0.004044			
55957	7976626	-0.117156	-9.780955	-0.058018	0.001690	-0.127324	-0.005524			
55958	7976651	-0.136038	-9.765577	-0.055521	-0.000212	-0.121276	0.000611	-90.306107	0.604382	-74.877769
55959	7976676	-0.134451	-9.756100	-0.085376	-0.008450	-0.120534	-0.008599			
55960	7976701	-0.145424	-9.759194	-0.077575	-0.002639	-0.113581	-0.005756			
55961	7976726	-0.131775	-9.741367	-0.084320	-0.001356	-0.107297	-0.005277			
55962	7976751	-0.107714	-9.757543	-0.092675	-0.006892	-0.108752	-0.008991	-90.305351	0.601539	-74.813545
55963	7976776	-0.133160	-9.781960	-0.098756	-0.004385	-0.098035	-0.001821			
55964	7976801	-0.149480	-9.768284	-0.106845	-0.008166	-0.093772	-0.002365			
55965	7976826	-0.161808	-9.780252	-0.171927	-0.002967	-0.081728	-0.001480			
55966	7976851	-0.172259	-9.767856	-0.184860	-0.006960	-0.070962	-0.008847	-90.305183	0.600641	-74.764435
55967	7976876	-0.189500	-9.765671	-0.186234	-0.006820	-0.064680	-0.002722			
55968	7976901	-0.193280	-9.768074	-0.187070	-0.001869	-0.054838	-0.001526			
55969	7976926	-0.171847	-9.779469	-0.168977	-0.002804	-0.038697	0.001062			
55970	7976951	-0.162144	-9.761196	-0.146536	-0.003605	-0.031747	-0.005056	-90.304199	0.600538	-74.737480
55971	7976976	-0.150752	-9.767426	-0.133135	-0.001734	-0.027831	-0.001833			
55972	7977001	-0.158431	-9.783997	-0.079428	-0.001670	-0.015497	-0.004911			
55973	7977026	-0.123802	-9.771188	-0.081582	-0.003114	-0.012292	-0.005092			
55974	7977051	-0.156131	-9.748528	-0.070374	-0.007090	-0.003377	-0.001371	-90.303200	0.599618	-74.729279
55975	7977076	-0.122718	-9.766567	-0.042770	-0.005572	-0.004707	-0.001322			
55976	7977101	-0.126412	-9.745473	-0.028850	-0.006180	-0.001679	-0.001368			
55977	7977126	-0.108169	-9.750833	-0.035612	-0.005843	-0.004524	-0.004974			
55978	7977151	-0.112250	-9.740198	-0.020708	-0.001280	-0.000690	-0.001371	-90.303055	0.599256	-74.727943
55979	7977176	-0.111543	-9.719724	-0.025049	-0.003797	-0.000088	-0.002517			
55980	7977201	-0.112026	-9.753847	-0.027902	-0.001515	0.000791	-0.001492			
55981	7977226	-0.117615	-9.741044	-0.000543	-0.000817	-0.003202	-0.000103			
55982	7977251	-0.117834	-9.749632	-0.028825	-0.002977	-0.003488	0.002973	-90.301491	0.600028	-74.727356
55983	7977276	-0.124008	-9.752714	-0.018751	-0.002961	-0.004466	-0.001711			
55984	7977301	-0.106063	-9.773310	-0.022179	-0.002936	0.001019	-0.002840			
55985	7977326	-0.094671	-9.771156	-0.029970	-0.007603	0.001007	-0.001927			
55986	7977351	-0.116588	-9.747110	-0.006864	-0.006765	-0.002778	0.004205	-90.301514	0.600634	-74.726852
55987	7977376	-0.120444	-9.767193	-0.030829	-0.008628	-0.001007	0.000051			
55988	7977401	-0.103271	-9.763076	-0.038079	-0.006525	-0.003308	-0.003168			
55989	7977426	-0.106459	-9.788656	-0.011653	-0.006886	-0.003570	-0.000545			
55990	7977451	-0.114455	-9.746515	-0.044237	-0.005576	-0.002310	0.001319	-90.302605	0.601230	-74.725685
55991	7977476	-0.114726	-9.764272	-0.031255	-0.003386	-0.002992	-0.001256			
55992	7977501	-0.108961	-9.764952	-0.043282	-0.002603	-0.003551	-0.000106			
55993	7977526	-0.114777	-9.755219	-0.033698	-0.006762	-0.001636	-0.004573			
55994	7977551	-0.113942	-9.743698	-0.041339	-0.004062	-0.002103	-0.005092	-90.302147	0.600593	-74.724480
55995	7977576	-0.111232	-9.765242	-0.057689	-0.005807	-0.005488	-0.002094			
55996	7977601	-0.117044	-9.764279	-0.032177	-0.005502	-0.003234	-0.005925			
55997	7977626	-0.112651	-9.736212	-0.033663	-0.002401	-0.002071	-0.005233			
55998	7977651	-0.124381	-9.749561	-0.038856	-0.003649	-0.000606	-0.001049	-90.301743	0.599497	-74.723114
55999	7977676	-0.123531	-9.742528	-0.032745	-0.009757	-0.004075	-0.004637			
56000	7977701	-0.092619	-9.782058	-0.029468	-0.004649	-0.005788	-0.001526			
56001	7977726	-0.110756	-9.754677	-0.003525	-0.005564	-0.007293	-0.003709			
56002	7977751	-0.104390	-9.752285	-0.030376	-0.003988	-0.000355	-0.002009	-90.302292	0.598738	-74.720871
56003	7977776	-0.082263	-9.799707	-0.045823	-0.006066	-0.001360	-0.003554			
56004	7977801	-0.133357	-9.768933	-0.021123	-0.005358	-0.001143	0.000621			
56005	7977826	-0.113446	-9.759158	-0.023666	-0.008921	0.000213	-0.000711			
56006	7977851	-0.115785	-9.762115	-0.017312	-0.001135	-0.003345	-0.002094	-90.302521	0.598858	-74.720375
56007	7977876	-0.103830	-9.761884	-0.023681	-0.004916	-0.001535	-0.004445			
56008	7977901	-0.103711	-9.778107	-0.016888	-0.001337	-0.004826	0.000207			
56009	7977926	-0.111674	-9.739452	-0.037973	-0.000484	-0.003581	-0.000048			
56010	7977951	-0.126270	-9.749490	-0.045121	-0.005417	-0.001150	0.000876	-90.301384	0.599304	-74.719025
56011	7977976	-0.142171	-9.736189	-0.028336	-0.010464	0.003918	-0.007989			
56012	7978001	-0.129009	-9.762974	-0.034027	-0.000484	-0.003912	-0.002673			
56013	7978026	-0.103855	-9.766733	-0.016488	-0.003724	-0.002477	-0.000995			
56014	7978051	-0.097408	-9.756481	0.001202	-0.007713	-0.003585	-0.000417	-90.301743	0.598503	-74.718422
56015	7978076	-0.128617	-9.758729	-0.032584	-0.000195	-0.002807	-0.001383			
56016	7978101	-0.137165	-9.764135	-0.027322	-0.005154	-0.003663	-0.001125			
56017	7978126	-0.102190	-9.770168	-0.039020	-0.005247	-0.000830	-0.003743			
56018	7978151	-0.082760	-9.766342	-0.024719	-0.003970	-0.003271	-0.007604	-90.300949	0.597461	-74.717171
56019	7978176	-0.097301	-9.797632	-0.006875	-0.002626	-0.007114	-0.002818			
56020	7978201	-0.093522	-9.783949	-0.029939	-0.003420	-0.002156	-0.004780			
56021	7978226	-0.092400	-9.773125	0.007975	-0.003204	-0.000998	-0.007018			
56022	7978251	-0.107643	-9.759456	-0.029939	-0.007863	-0.005330	-0.001831	-90.300522	0.596035	-74.715202
56023	7978276	-0.117431	-9.746070	-0.013605	-0.011426	-0.001845	-0.004239			
56024	7978301	-0.116100	-9.768255	-0.019811	-0.007044	-0.003062	-0.006503			
56025	7978326	-0.105487	-9.755480	-0.008787	-0.004692	0.000030	-0.000782			
56026	7978351	-0.122113	-9.712380	-0.017311	-0.004508	0.000152	-0.001937	-90.301605	0.595057	-74.714775
56027	7978376	-0.101864	-9.757656	-0.050040	-0.004996	-0.004758	0.000215			
56028	7978401	-0.116597	-9.767177	-0.028847	-0.002675	-0.003365	-0.003245			
56029	7978426	-0.111775	-9.739287	-0.017964	-0.007603	-0.005652	-0.004721			
56030	7978451	-0.105106	-9.732330	-0.033243	-0.007211	-0.005645	-0.001772	-90.301956	0.594643	-74.712273
56031	7978476	-0.094843	-9.769702	0.000252	-0.005838	-0.004455	-0.002924			
56032	7978501	-0.090522	-9.768552	-0.010361	-0.008197	-0.006948	-0.002418			
56033	7978526	-0.086062	-9.771545	-0.028560	-0.004375	-0.010633	-0.003730			
56034	7978551	-0.123580	-9.747386	-0.025483	-0.005248	-0.002632	-0.000414	-90.302467	0.594217	-74.708992
56035	7978576	-0.091506	-9.756947	-0.025579	-0.001425	-0.008316	-0.000966			
56036	7978601	-0.099757	-9.789949	-0.014549	-0.003725	-0.010808	-0.001614			
56037	7978626	-0.094635	-9.778023	-0.015079	-0.004238	-0.012763	-0.002205			
56038	7978651	-0.109693	-9.749688	-0.018858	-0.006902	-0.009710	-0.004296	-90.301888	0.593882	-74.703308
56039	7978676	-0.118447	-9.745132	-0.013015	-0.002499	-0.013047	-0.000472			
56040	7978701	-0.110619	-9.762698	-0.006362	-0.000931	-0.009724	-0.000530			
56041	7978726	-0.108116	-9.728386	-0.014555	-0.005260	-0.012909	-0.003737			
56042	7978751	-0.097412	-9.751612	-0.006452	-0.006877	-0.014485	-0.002462	-90.301186	0.593829	-74.696411
56043	7978776	-0.101391	-9.755421	0.021880	-0.004104	-0.014818	0.000672			
56044	7978801	-0.114744	-9.773612	-0.009246	-0.005382	-0.017110	-0.001262			
56045	7978826	-0.103664	-9.761095	0.019038	-0.003885	-0.020117	-0.000702			
56046	7978851	-0.101343	-9.759754	0.026112	-0.007783	-0.016245	-0.002277	-90.301239	0.594311	-74.686867
56047	7978876	-0.086462	-9.764303	0.026086	-0.005729	-0.027002	-0.004582			
56048	7978901	-0.105003	-9.761876	0.007070	-0.002672	-0.024296	-0.002523			
56049	7978926	-0.115130	-9.737017	-0.014051	-0.006090	-0.029722	-0.003058			
56050	7978951	-0.091385	-9.743553	-0.001228	-0.005421	-0.030671	-0.001526	-90.301086	0.593645	-74.671150
56051	7978976	-0.121641	-9.754743	-0.007704	-0.003219	-0.031672	-0.003457			
56052	7979001	-0.116083	-9.767153	-0.029852	-0.006554	-0.031540	-0.004858			
56053	7979026	-0.107520	-9.766533	-0.032247	-0.004093	-0.036596	-0.003101			
56054	7979051	-0.106776	-9.751665	-0.042344	-0.003561	-0.030833	-0.001594	-90.300522	0.592815	-74.652710
56055	7979076	-0.127223	-9.761614	-0.028342	-0.006056	-0.034624	0.001727			
56056	7979101	-0.117721	-9.756647	-0.035495	-0.000349	-0.026503	0.002915			
56057	7979126	-0.119361	-9.734911	-0.031184	0.000905	-0.030179	-0.002180			
56058	7979151	-0.109805	-9.756492	-0.008297	-0.003582	-0.035933	0.003439	-90.298759	0.594691	-74.634773
56059	7979176	-0.113027	-9.760906	-0.001595	-0.007376	-0.033750	-0.002755			
56060	7979201	-0.123943	-9.761389	-0.009155	-0.004537	-0.032273	-0.002430			
56061	7979226	-0.121082	-9.751910	-0.037948	-0.002970	-0.031336	-0.000572			
56062	7979251	-0.114428	-9.747940	-0.043674	-0.000905	-0.029424	0.001295	-90.298004	0.595074	-74.616936
56063	7979276	-0.121420	-9.755081	-0.048017	-0.003488	-0.026956	-0.001636			
56064	7979301	-0.154316	-9.752705	-0.044026	-0.005937	-0.030556	-0.003313			
56065	7979326	-0.152134	-9.741247	-0.046423	-0.004874	-0.023228	0.000568			
56066	7979351	-0.110773	-9.765176	-0.062002	-0.007589	-0.017977	0.002715	-90.298134	0.595839	-74.603058
56067	7979376	-0.135202	-9.784484	-0.059987	-0.008565	-0.018206	-0.005935			
56068	7979401	-0.131206	-9.774762	-0.040811	-0.008970	-0.015105	-0.002582			
56069	7979426	-0.100084	-9.776570	-0.052872	-0.002901	-0.008740	-0.005838			
56070	7979451	-0.106109	-9.748400	-0.069691	-0.005983	-0.006074	-0.003186	-90.299019	0.594300	-74.596451
56071	7979476	-0.142969	-9.732210	-0.071928	-0.007834	-0.008240	-0.002229			
56072	7979501	-0.142351	-9.759996	-0.053604	0.000121	-0.004077	0.004250			
56073	7979526	-0.123825	-9.765017	-0.020234	-0.007248	-0.000216	-0.001360			
56074	7979551	-0.107194	-9.791131	-0.036567	-0.004172	-0.004818	-0.004594	-90.298859	0.594684	-74.594238
56075	7979576	-0.105256	-9.795273	-0.043764	-0.005677	0.000784	-0.001934			
56076	7979601	-0.112264	-9.767980	-0.035090	-0.001280	-0.002758	-0.001773			
56077	7979626	-0.100828	-9.768827	-0.032302	-0.004746	-0.000694	-0.003162			
56078	7979651	-0.115047	-9.774566	-0.040398	-0.005762	-0.000705	-0.002262	-90.298508	0.594312	-74.594025
56079	7979676	-0.136465	-9.777319	-0.033072	-0.005105	-0.005084	0.000727			
56080	7979701	-0.108999	-9.770966	-0.023187	-0.006407	-0.002393	-0.000024			
56081	7979726	-0.111307	-9.747058	-0.005376	-0.002924	0.000636	-0.002643			
56082	7979751	-0.111566	-9.742122	-0.049601	-0.009736	-0.004262	0.001127	-90.299110	0.595142	-74.592728
56083	7979776	-0.115049	-9.767330	-0.048543	-0.005423	0.000592	-0.002192			
56084	7979801	-0.104953	-9.780218	-0.035149	-0.004435	-0.002499	-0.004843			
56085	7979826	-0.082976	-9.755367	-0.029030	-0.003330	-0.006923	-0.000250			
56086	7979851	-0.123618	-9.741616	-0.030800	-0.008351	0.004619	0.001171	-90.299332	0.595205	-74.592430
56087	7979876	-0.120269	-9.753174	-0.016374	-0.005639	-0.000168	0.002162			
56088	7979901	-0.112210	-9.740103	-0.026564	-0.011170	0.000428	-0.000575			
56089	7979926	-0.094707	-9.755497	-0.060639	-0.006242	-0.001609	-0.001436			
56090	7979951	-0.122597	-9.752750	-0.015014	-0.009038	-0.000373	-0.002122	-90.301094	0.595849	-74.592468
56091	7979976	-0.112913	-9.775209	0.003231	-0.005332	0.002088	-0.001286			
56092	7980001	-0.115219	-9.764314	-0.028879	-0.006844	0.001477	-0.000843			
56093	7980026	-0.114326	-9.757211	-0.026979	-0.005922	0.000195	-0.004692			
56094	7980051	-0.095656	-9.766404	-0.030960	-0.009795	0.001357	-0.002818	-90.302254	0.595386	-74.593468
56095	7980076	-0.094706	-9.798431	-0.045236	-0.003023	-0.004138	-0.000493			
56096	7980101	-0.123291	-9.778041	-0.006805	-0.005811	-0.002766	0.000419			
56097	7980126	-0.109500	-9.763338	-0.025534	-0.004886	-0.002307	-0.005354			
56098	7980151	-0.128361	-9.739311	-0.029776	-0.004552	-0.000356	-0.003099	-90.302017	0.595106	-74.592384
56099	7980176	-0.107136	-9.763803	-0.024127	-0.004844	-0.001466	-0.004517			
56100	7980201	-0.089489	-9.806776	-0.022729	-0.003013	-0.000460	-0.001761			
56101	7980226	-0.111351	-9.737444	-0.014041	-0.005309	0.001244	-0.002314			
56102	7980251	-0.119711	-9.749216	-0.026966	-0.007366	0.001602	-0.001413	-90.302109	0.594606	-74.592804
56103	7980276	-0.117670	-9.763039	-0.020663	-0.003086	-0.000075	-0.002266			
56104	7980301	-0.084914	-9.792079	-0.018981	-0.006698	-0.001690	-0.003614			
56105	7980326	-0.113805	-9.774150	-0.004489	-0.008334	-0.000229	-0.004056			
56106	7980351	-0.108250	-9.759748	-0.011186	-0.006068	-0.003026	-0.000671	-90.302704	0.594027	-74.592377
56107	7980376	-0.125370	-9.759010	-0.011077	-0.002284	0.000650	-0.004248			
56108	7980401	-0.117376	-9.749058	-0.003916	-0.002985	-0.003959	-0.008440			
56109	7980426	-0.146428	-9.749706	-0.016231	-0.002453	0.000003	-0.003038			
56110	7980451	-0.147558	-9.731550	-0.025324	-0.000170	0.000691	-0.002648	-90.300995	0.592321	-74.592278
56111	7980476	-0.113621	-9.758091	0.000846	-0.004700	-0.003968	-0.000870			
56112	7980501	-0.108285	-9.766131	0.003206	-0.003952	-0.000922	0.000294			
56113	7980526	-0.077495	-9.755325	0.004423	-0.009306	-0.001727	0.001328			
56114	7980551	-0.112397	-9.731227	-0.017868	-0.004546	0.003716	0.000259	-90.301376	0.593392	-74.592163
56115	7980576	-0.111712	-9.742414	-0.030285	0.000168	-0.005823	0.001732			
56116	7980601	-0.089492	-9.767305	-0.029481	-0.003937	-0.001565	0.000541			
56117	7980626	-0.113465	-9.751391	-0.034602	-0.001538	-0.000232	0.000808			
56118	7980651	-0.127661	-9.756261	-0.037918	-0.004768	0.000352	-0.002192	-90.299950	0.594457	-74.591393
56119	7980676	-0.131110	-9.759500	-0.014933	-0.007099	0.005545	-0.002545			
56120	7980701	-0.102764	-9.760009	-0.051991	-0.006980	0.001477	-0.001219			
56121	7980726	-0.134125	-9.741934	-0.017248	-0.002854	0.002445	-0.005011			
56122	7980751	-0.119518	-9.768404	-0.012576	-0.006329	-0.000909	-0.003229	-90.300468	0.593665	-74.592918
56123	7980776	-0.104413	-9.752834	-0.026044	-0.005504	-0.002763	-0.002080			
56124	7980801	-0.089651	-9.743304	-0.047221	-0.002295	-0.001030	-0.003687			
56125	7980826	-0.081190	-9.744513	-0.023819	-0.006911	-0.004597	0.000343			
56126	7980851	-0.103860	-9.756131	-0.027515	-0.008368	-0.001334	-0.004441	-90.300911	0.593185	-74.591812
56127	7980876	-0.113831	-9.761000	-0.026965	-0.006120	-0.001422	-0.002265			
56128	7980901	-0.095320	-9.764870	-0.006969	-0.007404	-0.001639	-0.004634			
56129	7980926	-0.121412	-9.741902	-0.009673	-0.005127	-0.000164	0.000630			
56130	7980951	-0.118451	-9.775281	-0.027856	-0.002593	-0.003348	0.002138	-90.301094	0.593530	-74.591118
56131	7980976	-0.127821	-9.753389	-0.008183	-0.003713	-0.004999	-0.005688			
56132	7981001	-0.111055	-9.769265	-0.012134	-0.008245	-0.000666	0.003386			
56133	7981026	-0.107588	-9.764780	-0.022700	-0.004539	-0.003071	-0.004072			
56134	7981051	-0.108114	-9.751691	-0.041318	-0.000994	0.000216	-0.004776	-90.300758	0.592871	-74.590202
56135	7981076	-0.118934	-9.775414	-0.019291	-0.004543	-0.002876	-0.003238			
56136	7981101	-0.117738	-9.765124	-0.008265	-0.004570	-0.001381	0.002219			
56137	7981126	-0.102294	-9.749286	-0.007897	-0.006117	-0.003147	0.004649			
56138	7981151	-0.097814	-9.751016	-0.015502	-0.002418	-0.003032	-0.001836	-90.300392	0.594072	-74.588951
56139	7981176	-0.091947	-9.766875	-0.028439	0.000159	-0.001226	0.003941			
56140	7981201	-0.121456	-9.769000	-0.005801	-0.003198	0.003281	-0.004174			
56141	7981226	-0.120831	-9.747232	-0.001505	-0.004128	-0.005904	-0.002934			
56142	7981251	-0.109414	-9.743710	-0.006412	-0.006086	-0.000709	-0.004505	-90.299461	0.593896	-74.588600
56143	7981276	-0.079220	-9.785199	-0.030070	-0.008290	-0.001651	-0.000985			
56144	7981301	-0.107093	-9.762687	-0.035225	-0.009470	0.001299	-0.002889			
56145	7981326	-0.124644	-9.767092	-0.040295	-0.002569	-0.002387	-0.001764			
56146	7981351	-0.112172	-9.750851	-0.006368	-0.003545	-0.002155	-0.005291	-90.300026	0.593269	-74.588188
56147	7981376	-0.110695	-9.783570	-0.038021	-0.008541	-0.003842	0.001319			
56148	7981401	-0.124386	-9.762276	-0.014462	-0.003785	-0.002149	0.000612			
56149	7981426	-0.121197	-9.760582	0.001805	-0.005186	-0.002366	0.000864			
56150	7981451	-0.120607	-9.752071	-0.027042	-0.011967	-0.000943	-0.002822	-90.301392	0.594196	-74.587151
56151	7981476	-0.105766	-9.768677	-0.014564	-0.006418	0.002201	0.000638			
56152	7981501	-0.098883	-9.772949	-0.040507	-0.008775	-0.000165	0.002168			
56153	7981526	-0.093345	-9.759309	-0.028031	-0.006528	0.001220	-0.004238			
56154	7981551	-0.122282	-9.738898	-0.021157	-0.001565	0.002548	-0.000592	-90.301872	0.594849	-74.588264
56155	7981576	-0.119350	-9.765892	-0.052833	-0.006062	0.002916	-0.002046			
56156	7981601	-0.123884	-9.760660	-0.026421	-0.004770	0.002748	-0.001155			
56157	7981626	-0.141490	-9.767668	-0.016787	-0.006899	0.001357	0.002688			
56158	7981651	-0.105646	-9.773350	-0.019325	-0.003451	0.001475	-0.001109	-90.302063	0.595545	-74.589729
56159	7981676	-0.124102	-9.739632	-0.035986	-0.001566	0.000542	-0.000277			
56160	7981701	-0.117146	-9.762467	-0.026992	-0.007954	-0.002290	-0.004192			
56161	7981726	-0.138851	-9.776335	-0.036940	-0.009604	0.001690	-0.000893			
56162	7981751	-0.116101	-9.738356	-0.020251	-0.005032	0.000738	-0.001356	-90.302673	0.595508	-74.590111
56163	7981776	-0.115331	-9.757765	-0.022635	-0.005284	-0.003733	-0.003368			
56164	7981801	-0.117916	-9.745600	-0.013498	-0.001879	-0.001989	-0.003184			
56165	7981826	-0.134322	-9.736063	0.001428	-0.003029	0.002192	-0.002573			
56166	7981851	-0.136499	-9.735500	-0.037358	-0.002104	0.001237	-0.002003	-90.301605	0.594838	-74.590065
56167	7981876	-0.117178	-9.755196	-0.037027	-0.004205	-0.003776	-0.004590			
56168	7981901	-0.103862	-9.758401	-0.033685	-0.002104	-0.005151	-0.001207			
56169	7981926	-0.118296	-9.778768	-0.047991	0.000077	-0.002788	0.002129			
56170	7981951	-0.108444	-9.727981	-0.040835	-0.000058	-0.005065	-0.003006	-90.299652	0.594813	-74.587952
56171	7981976	-0.108427	-9.743161	-0.009742	-0.002252	0.003691	-0.003916			
56172	7982001	-0.119892	-9.741886	-0.009671	-0.006515	-0.003237	-0.003301			
56173	7982026	-0.118352	-9.750324	-0.014958	-0.002545	0.000913	-0.000465			
56174	7982051	-0.114409	-9.749502	-0.035135	-0.005648	-0.008453	-0.001599	-90.299217	0.594420	-74.587227
56175	7982076	-0.112259	-9.788014	0.003698	-0.006521	-0.005108	-0.003183			
56176	7982101	-0.092932	-9.767633	-0.010361	-0.009842	-0.000834	0.001331			
56177	7982126	-0.105582	-9.778518	-0.022728	-0.007552	0.001597	-0.001545			
56178	7982151	-0.093920	-9.767729	-0.005013	-0.004931	-0.002362	0.000994	-90.300499	0.595014	-74.586563
56179	7982176	-0.121567	-9.746669	-0.039487	-0.010720	0.000374	-0.001349			
56180	7982201	-0.122348	-9.735626	-0.017778	-0.003061	0.001426	0.001843			
56181	7982226	-0.102596	-9.771426	-0.049528	-0.004752	-0.000301	-0.004703			
56182	7982251	-0.105676	-9.764558	-0.035643	-0.004655	-0.003457	-0.001128	-90.300964	0.595173	-74.586540
56183	7982276	-0.102725	-9.771566	-0.040501	-0.009486	0.000148	0.001791			
56184	7982301	-0.115233	-9.723075	-0.026027	-0.006068	-0.003360	-0.004709			
56185	7982326	-0.122506	-9.767014	-0.013062	-0.007932	-0.002666	0.001967			
56186	7982351	-0.126834	-9.760499	-0.008191	-0.003310	-0.005177	-0.000431	-90.301933	0.595919	-74.585220
56187	7982376	-0.107260	-9.760523	-0.022721	-0.006406	-0.006323	0.002259			
56188	7982401	-0.099036	-9.766542	-0.024666	-0.007176	-0.004213	0.000092			
56189	7982426	-0.111687	-9.751206	-0.014113	-0.009525	-0.005092	-0.000034			
56190	7982451	-0.097548	-9.761049	-0.041893	-0.005977	0.000006	-0.004442	-90.303230	0.596563	-74.583275
56191	7982476	-0.109040	-9.759408	-0.034638	-0.003463	0.001538	-0.001489			
56192	7982501	-0.088610	-9.763767	-0.011722	-0.000969	-0.009021	-0.005078			
56193	7982526	-0.118148	-9.754700	-0.038967	-0.007357	-0.009125	-0.000764			
56194	7982551	-0.085105	-9.782213	-0.012667	-0.000066	-0.004736	-0.001147	-90.302055	0.596308	-74.580498
56195	7982576	-0.110217	-9.757954	-0.005385	-0.001970	-0.011612	-0.002138			
56196	7982601	-0.119411	-9.775311	-0.026467	-0.007032	-0.007181	-0.000308			
56197	7982626	-0.104075	-9.758852	-0.004993	-0.007306	-0.006077	0.004125			
56198	7982651	-0.111386	-9.739496	-0.004004	-0.006393	-0.007173	-0.003064	-90.302414	0.597072	-74.576210
56199	7982676	-0.129773	-9.740675	-0.034577	-0.007795	-0.013652	-0.002196			
56200	7982701	-0.117497	-9.775082	-0.009231	-0.006147	-0.011507	-0.008602			
56201	7982726	-0.111515	-9.760952	-0.027874	-0.000995	-0.014047	0.000735			
56202	7982751	-0.090470	-9.772367	-0.009775	-0.002554	-0.013112	-0.000672	-90.301994	0.596495	-74.569023
56203	7982776	-0.087172	-9.761172	-0.025274	-0.010970	-0.016621	-0.002977			
56204	7982801	-0.077089	-9.775978	-0.009872	-0.002855	-0.011893	-0.001630			
56205	7982826	-0.077725	-9.770977	0.004013	-0.005457	-0.016908	-0.002418			
56206	7982851	-0.099398	-9.762947	0.018933	-0.005975	-0.022404	0.003260	-90.302658	0.596949	-74.559586
56207	7982876	-0.083926	-9.773673	0.020359	-0.003473	-0.027539	-0.005941			
56208	7982901	-0.059958	-9.785616	0.013961	-0.008826	-0.019877	-0.002813			
56209	7982926	-0.085434	-9.770739	0.012668	-0.003591	-0.027727	-0.001578			
56210	7982951	-0.086618	-9.756607	0.018957	-0.003630	-0.034505	0.001079	-90.302437	0.596638	-74.544167
56211	7982976	-0.039078	-9.788960	0.032542	-0.006314	-0.036950	-0.002271			
56212	7983001	-0.066454	-9.742487	0.042310	-0.004601	-0.044209	0.003654			
56213	7983026	-0.068570	-9.757137	0.037493	-0.007840	-0.045635	-0.002246			
56214	7983051	-0.056807	-9.750962	0.046112	-0.002220	-0.057808	-0.002263	-90.302315	0.597261	-74.518005
56215	7983076	-0.091520	-9.773958	0.001268	-0.003091	-0.062269	0.003043			
56216	7983101	-0.116001	-9.747519	-0.010707	-0.007902	-0.060305	-0.002575			
56217	7983126	-0.093500	-9.779544	-0.038559	-0.003766	-0.057712	-0.003731			
56218	7983151	-0.111565	-9.763341	-0.088782	-0.003403	-0.061058	-0.001182	-90.301727	0.597739	-74.483719
56219	7983176	-0.144453	-9.749717	-0.106900	-0.004926	-0.053205	-0.002992			
56220	7983201	-0.171645	-9.775442	-0.122478	-0.002818	-0.044709	-0.002952			
56221	7983226	-0.145987	-9.774733	-0.116861	-0.003049	-0.039287	-0.003497			
56222	7983251	-0.157453	-9.761879	-0.128808	-0.000176	-0.035168	-0.006758	-90.300163	0.596481	-74.459297
56223	7983276	-0.159059	-9.766590	-0.101496	-0.003470	-0.029729	-0.003062			
56224	7983301	-0.152295	-9.771788	-0.097175	-0.003383	-0.024179	-0.003925			
56225	7983326	-0.126777	-9.757135	-0.103614	-0.006241	-0.018470	-0.000753			
56226	7983351	-0.132132	-9.758669	-0.070067	-0.009567	-0.016730	-0.005734	-90.300476	0.595540	-74.446823
56227	7983376	-0.128006	-9.776801	-0.091120	-0.004284	-0.003263	-0.005679			
56228	7983401	-0.135839	-9.754066	-0.033023	-0.000171	-0.007048	0.003146			
56229	7983426	-0.124680	-9.736032	-0.024502	-0.003614	0.000441	-0.001040			
56230	7983451	-0.120993	-9.749281	-0.054199	-0.000329	-0.004545	-0.001201	-90.298798	0.595813	-74.445038
56231	7983476	-0.110474	-9.760465	-0.028443	-0.005808	0.004850	-0.004029			
56232	7983501	-0.094005	-9.793133	-0.019396	-0.004423	-0.000411	0.000109			
56233	7983526	-0.115366	-9.749007	-0.036559	-0.007501	-0.002411	-0.001688			
56234	7983551	-0.096171	-9.762579	-0.033781	-0.004821	-0.004299	-0.002031	-90.299164	0.595672	-74.445007
56235	7983576	-0.104865	-9.765066	-0.001179	-0.006360	-0.004205	-0.004780			
56236	7983601	-0.107331	-9.776820	-0.042339	-0.004983	-0.001079	-0.004132			
56237	7983626	-0.136739	-9.754980	-0.035939	-0.003846	-0.002535	-0.000995			
56238	7983651	-0.135272	-9.730583	-0.017261	-0.004226	-0.004803	-0.001261	-90.299072	0.595016	-74.443497
56239	7983676	-0.126568	-9.734106	-0.027876	-0.004141	-0.003189	-0.000101			
56240	7983701	-0.111056	-9.770876	0.000828	-0.004888	0.002359	-0.000970			
56241	7983726	-0.100760	-9.752655	-0.003046	-0.003165	0.000319	-0.002012			
56242	7983751	-0.121479	-9.758301	-0.023044	-0.002220	0.002520	-0.006869	-90.298294	0.594534	-74.444061
56243	7983776	-0.111900	-9.762456	-0.023168	-0.006376	-0.001816	-0.005214			
56244	7983801	-0.087826	-9.755821	-0.003190	-0.008418	-0.006115	-0.005685			
56245	7983826	-0.101164	-9.751095	-0.013157	-0.006177	0.002456	-0.003533			
56246	7983851	-0.107699	-9.760661	-0.012630	-0.005350	0.000139	-0.005656	-90.299202	0.592603	-74.443596
56247	7983876	-0.126186	-9.772958	-0.000069	-0.005034	0.000145	-0.006936			
56248	7983901	-0.128946	-9.738517	-0.019759	-0.008139	-0.004357	-0.001571			
56249	7983926	-0.106185	-9.768099	-0.022177	-0.003155	-0.004141	-0.000043			
56250	7983951	-0.097917	-9.775424	-0.032808	-0.006209	-0.004649	-0.000556	-90.299561	0.592243	-74.442001
56251	7983976	-0.092737	-9.769745	-0.027549	-0.003916	-0.000413	-0.003234			
56252	7984001	-0.114122	-9.779477	-0.028895	-0.006509	0.001104	0.000632			
56253	7984026	-0.088256	-9.766322	0.000217	-0.006776	-0.002974	-0.000288			
56254	7984051	-0.122077	-9.756571	-0.012583	-0.008813	0.000861	-0.002186	-90.300438	0.592465	-74.442093
56255	7984076	-0.116015	-9.769936	-0.033628	-0.001678	-0.000572	-0.005351			
56256	7984101	-0.086143	-9.771193	-0.020858	-0.004750	-0.002293	-0.001636			
56257	7984126	-0.122612	-9.750915	-0.011108	-0.004829	-0.001591	-0.001499			
56258	7984151	-0.088077	-9.765518	-0.020928	-0.006334	0.003360	-0.003204	-90.300102	0.591725	-74.442200
56259	7984176	-0.098673	-9.759726	-0.004999	-0.006756	-0.000088	-0.007902			
56260	7984201	-0.127983	-9.746212	-0.012470	-0.002970	-0.001743	0.000231			
56261	7984226	-0.104848	-9.761942	-0.019785	-0.001341	-0.002815	-0.001070			
56262	7984251	-0.118705	-9.756392	-0.022160	-0.006084	-0.002320	-0.000152	-90.299690	0.591391	-74.441460
56263	7984276	-0.101725	-9.782213	-0.026590	-0.007598	-0.001048	0.000621			
56264	7984301	-0.113772	-9.775062	-0.006853	-0.007999	-0.000614	-0.002968			
56265	7984326	-0.123456	-9.756893	-0.024088	-0.007898	-0.001962	-0.001362			
56266	7984351	-0.131477	-9.761395	-0.015870	-0.006720	-0.000788	-0.004828	-90.301163	0.591124	-74.441109
56267	7984376	-0.123857	-9.765518	-0.018771	-0.005974	-0.004189	-0.001767			
56268	7984401	-0.110926	-9.766253	-0.022701	-0.008199	-0.000750	-0.004563			
56269	7984426	-0.133423	-9.756525	-0.024932	-0.004625	-0.000101	-0.003034			
56270	7984451	-0.112316	-9.766722	-0.024145	-0.008097	-0.005785	-0.002348	-90.302162	0.590381	-74.439865
56271	7984476	-0.120109	-9.754528	-0.021180	-0.005545	-0.003804	-0.006126			
56272	7984501	-0.127037	-9.765299	-0.035524	-0.004134	0.000361	-0.003351			
56273	7984526	-0.132592	-9.748496	-0.022592	-0.007217	-0.003444	-0.004579			
56274	7984551	-0.113828	-9.751214	-0.046674	-0.006048	-0.001803	-0.002909	-90.302597	0.588906	-74.438889
56275	7984576	-0.113978	-9.752674	-0.012644	-0.010566	0.003473	-0.004087			
56276	7984601	-0.117407	-9.788619	-0.023577	-0.004052	-0.001693	0.003308			
56277	7984626	-0.104104	-9.746669	-0.025544	-0.004025	0.001606	0.003125			
56278	7984651	-0.106756	-9.733893	0.006527	-0.006527	0.005484	-0.004472	-90.303360	0.589531	-74.440453
56279	7984676	-0.101597	-9.759235	-0.007791	0.001468	0.001696	-0.001177			
56280	7984701	-0.096354	-9.761566	-0.006924	-0.003618	-0.003694	-0.000364			
56281	7984726	-0.121662	-9.765272	-0.002019	-0.006515	0.001432	0.004289			
56282	7984751	-0.111284	-9.741629	-0.019314	-0.002295	-0.000893	-0.001381	-90.302071	0.590663	-74.440529
56283	7984776	-0.116611	-9.766571	-0.037561	-0.011882	0.001004	0.001486			
56284	7984801	-0.110060	-9.770328	-0.003036	-0.009108	0.002083	-0.002180			
56285	7984826	-0.097852	-9.747529	-0.026562	-0.004952	0.002420	0.001661			
56286	7984851	-0.113922	-9.750377	-0.039026	-0.008914	0.000022	-0.000516	-90.304214	0.591671	-74.441620
56287	7984876	-0.122436	-9.761172	-0.022042	0.002137	-0.005604	-0.002369			
56288	7984901	-0.121464	-9.768897	-0.013001	-0.004423	0.001650	-0.001869			
56289	7984926	-0.120701	-9.779938	-0.034572	-0.001515	0.000733	-0.003099			
56290	7984951	-0.120927	-9.727843	-0.028289	0.002220	0.002152	-0.002907	-90.301605	0.591141	-74.441772
56291	7984976	-0.114795	-9.772544	-0.017370	-0.003703	0.001739	0.003774			
56292	7985001	-0.110037	-9.773207	-0.000596	-0.003684	-0.001699	-0.002146			
56293	7985026	-0.112597	-9.747249	-0.025562	-0.006028	-0.002317	-0.001566			
56294	7985051	-0.123832	-9.772923	0.000374	-0.007443	-0.004613	-0.006701	-90.301727	0.591131	-74.441055
56295	7985076	-0.097530	-9.769858	-0.023700	-0.004946	-0.000305	-0.005922			
56296	7985101	-0.110700	-9.754695	-0.002031	-0.003105	0.000183	-0.003099			
56297	7985126	-0.108447	-9.745111	-0.006377	-0.003687	-0.005706	-0.003834			
56298	7985151	-0.092432	-9.759356	-0.023624	0.002815	0.001256	-0.004011	-90.300140	0.589664	-74.440674
56299	7985176	-0.109422	-9.778298	-0.009259	-0.004978	-0.001404	-0.004643			
56300	7985201	-0.128888	-9.744801	-0.012979	-0.003538	0.002050	-0.002962			
56301	7985226	-0.093636	-9.739961	-0.021370	-0.008890	0.000985	-0.004041			
56302	7985251	-0.131530	-9.749730	-0.034026	-0.002095	0.000522	-0.005852	-90.300095	0.588095	-74.441284
56303	7985276	-0.098515	-9.773320	-0.015530	-0.004075	-0.005451	-0.001718			
56304	7985301	-0.109184	-9.752840	-0.028877	-0.002643	-0.001939	-0.001958			
56305	7985326	-0.098378	-9.743430	-0.015533	-0.006141	-0.002973	-0.004134			
56306	7985351	-0.110263	-9.745711	-0.030870	-0.007156	-0.000975	0.001006	-90.300079	0.588086	-74.439911
56307	7985376	-0.110077	-9.760549	-0.022217	-0.003743	0.002436	-0.003210			
56308	7985401	-0.111403	-9.773981	-0.013521	-0.003976	0.001724	-0.002125			
56309	7985426	-0.106717	-9.761506	-0.019384	-0.006171	-0.003940	-0.002669			
56310	7985451	-0.125793	-9.771413	-0.007224	-0.001703	-0.001332	0.001121	-90.299484	0.588035	-74.440071
56311	7985476	-0.102298	-9.775311	-0.012624	-0.004360	0.001584	-0.002256			
56312	7985501	-0.091791	-9.772594	-0.026605	-0.005738	0.000525	-0.003923			
56313	7985526	-0.127976	-9.734082	-0.030731	-0.004713	-0.007398	-0.000313			
56314	7985551	-0.102462	-9.765392	-0.009295	-0.007193	0.000112	-0.001164	-90.299789	0.587874	-74.439545
56315	7985576	-0.118645	-9.773882	0.005186	-0.004821	0.002159	-0.003086			
56316	7985601	-0.125347	-9.759319	-0.021609	-0.001527	0.001319	0.000434			
56317	7985626	-0.103435	-9.755546	-0.034196	-0.005412	0.000735	0.002103			
56318	7985651	-0.121268	-9.741332	-0.016430	-0.006503	-0.001490	-0.003804	-90.299568	0.588190	-74.440254
56319	7985676	-0.121446	-9.769392	-0.012535	-0.004207	-0.003262	-0.002152			
56320	7985701	-0.096742	-9.771138	-0.001134	-0.003757	-0.003442	-0.001065			
56321	7985726	-0.091999	-9.757882	-0.027053	-0.002374	-0.000118	0.001195			
56322	7985751	-0.146893	-9.744276	-0.030699	-0.009687	-0.001866	-0.002062	-90.299545	0.588547	-74.439224
56323	7985776	-0.100171	-9.791792	-0.018878	-0.003207	-0.000528	-0.001501			
56324	7985801	-0.099391	-9.769744	-0.032801	-0.006144	-0.000580	-0.002205			
56325	7985826	-0.086926	-9.742594	-0.029463	-0.000286	-0.001699	-0.000815			
56326	7985851	-0.130959	-9.774466	0.002415	-0.002147	0.000393	-0.004579	-90.298409	0.588184	-74.439186
56327	7985876	-0.109972	-9.768774	-0.011661	-0.003976	0.003266	-0.007246			
56328	7985901	-0.097948	-9.771495	-0.041007	-0.007513	0.000305	-0.000007			
56329	7985926	-0.128407	-9.737873	-0.031239	-0.006896	-0.003107	0.000037			
56330	7985951	-0.129659	-9.750755	-0.027902	-0.006926	-0.002272	-0.002913	-90.299179	0.587670	-74.439224
56331	7985976	-0.087053	-9.773630	-0.017051	-0.006028	-0.002256	-0.001957			
56332	7986001	-0.117457	-9.732795	-0.043199	-0.000842	0.003977	-0.000970			
56333	7986026	-0.115953	-9.740941	-0.037110	-0.009803	-0.002316	-0.000595			
56334	7986051	-0.090559	-9.787168	-0.034283	-0.006032	-0.002716	-0.006762	-90.299561	0.587144	-74.439026
56335	7986076	-0.100395	-9.807499	-0.016065	-0.010252	0.001280	-0.006215			
56336	7986101	-0.118909	-9.772360	-0.032725	-0.006931	-0.000139	-0.002064			
56337	7986126	-0.115871	-9.746557	-0.042285	-0.005147	0.002548	-0.000001			
56338	7986151	-0.093848	-9.762902	-0.010228	-0.001244	-0.002055	-0.005619	-90.300110	0.586083	-74.439560
56339	7986176	-0.101463	-9.765787	-0.013989	0.001001	-0.000073	-0.004971			
56340	7986201	-0.112486	-9.752787	-0.036116	-0.007151	0.000957	-0.001223			
56341	7986226	-0.105844	-9.752750	-0.032251	-0.004317	0.002497	0.000185			
56342	7986251	-0.106276	-9.753203	-0.034228	-0.006743	-0.000076	-0.001681	-90.299706	0.585928	-74.440308
56343	7986276	-0.133715	-9.739465	-0.023927	0.000973	0.003496	0.001657			
56344	7986301	-0.101558	-9.763908	-0.013168	-0.009055	0.002867	0.002125			
56345	7986326	-0.094439	-9.761995	-0.007902	-0.007027	-0.001109	-0.001878			
56346	7986351	-0.088255	-9.783161	-0.045762	-0.001155	-0.004552	0.000903	-90.299217	0.587268	-74.440735
56347	7986376	-0.117059	-9.779692	-0.017367	-0.006530	-0.000320	0.001015			
56348	7986401	-0.138874	-9.745783	-0.018721	-0.004663	-0.002809	0.000034			
56349	7986426	-0.129233	-9.739089	-0.045569	-0.005482	-0.003219	-0.001056			
56350	7986451	-0.117612	-9.755667	-0.037563	-0.007127	-0.004414	-0.005616	-90.299736	0.587412	-74.439445
56351	7986476	-0.103251	-9.744615	-0.003543	-0.005239	-0.000690	-0.001054			
56352	7986501	-0.123605	-9.755241	-0.007712	-0.002098	0.005509	0.000839			
56353	7986526	-0.130015	-9.721750	-0.031156	-0.002255	-0.000258	-0.001754			
56354	7986551	-0.122419	-9.752889	-0.036498	-0.002797	-0.001626	-0.005995	-90.298676	0.587215	-74.440170
56355	7986576	-0.092820	-9.765917	-0.029499	-0.008073	-0.000353	-0.002067			
56356	7986601	-0.109352	-9.744894	-0.021712	-0.004353	-0.002542	0.000799			
56357	7986626	-0.108235	-9.751421	-0.027966	-0.005108	0.000989	-0.000781			
56358	7986651	-0.114952	-9.747707	-0.028359	-0.000960	-0.000742	-0.001761	-90.298447	0.587613	-74.440086
56359	7986676	-0.116424	-9.754755	-0.002949	0.000246	-0.004467	-0.003007			
56360	7986701	-0.116429	-9.755780	0.002766	-0.005196	-0.006703	-0.004989			
56361	7986726	-0.108349	-9.757889	-0.008774	-0.004146	0.001280	0.001203			
56362	7986751	-0.119433	-9.738386	-0.021176	-0.002883	-0.000322	-0.000347	-90.297302	0.587531	-74.438927
56363	7986776	-0.116357	-9.747160	-0.034147	-0.004418	-0.002420	0.000098			
56364	7986801	-0.093161	-9.774489	-0.028046	-0.006467	-0.002782	-0.004199			
56365	7986826	-0.130026	-9.732032	-0.010637	-0.007758	-0.002094	-0.001043			
56366	7986851	-0.100580	-9.762950	-0.012764	-0.013584	-0.002323	-0.003535	-90.299034	0.587241	-74.437836
56367	7986876	-0.120192	-9.753627	-0.017865	-0.007412	-0.001247	-0.001748			
56368	7986901	-0.098748	-9.750517	-0.018012	-0.010498	0.001083	-0.004101			
56369	7986926	-0.115203	-9.753193	-0.042248	-0.001243	-0.002180	-0.005679			
56370	7986951	-0.104680	-9.776634	-0.020778	-0.002927	0.001095	0.000113	-90.299377	0.586548	-74.437988
56371	7986976	-0.115121	-9.805840	-0.043230	-0.003847	-0.000601	-0.001688			
56372	7987001	-0.106921	-9.793014	-0.006399	-0.003800	0.000247	-0.000152			
56373	7987026	-0.097725	-9.761018	-0.012674	-0.006901	0.000827	-0.002319			
56374	7987051	-0.102648	-9.786171	-0.015984	-0.004561	0.000036	-0.001115	-90.299248	0.586729	-74.438339
56375	7987076	-0.120051	-9.769333	-0.014496	-0.005707	-0.006570	-0.000948			
56376	7987101	-0.103318	-9.771371	-0.023184	-0.006300	-0.003542	0.002658			
56377	7987126	-0.114935	-9.752067	-0.023113	-0.004755	0.004099	-0.002690			
56378	7987151	-0.084380	-9.758883	-0.017040	-0.004847	0.000603	-0.003031	-90.299477	0.587109	-74.437851
56379	7987176	-0.121325	-9.768969	-0.039917	-0.006102	-0.001864	0.001197			
56380	7987201	-0.128757	-9.758737	-0.000922	0.000277	-0.003307	-0.002740			
56381	7987226	-0.107541	-9.728474	-0.039461	-0.004300	-0.002347	-0.000416			
56382	7987251	-0.111125	-9.747100	-0.034182	-0.005811	-0.001150	-0.001557	-90.298920	0.587526	-74.436920
56383	7987276	-0.088597	-9.765482	-0.023731	-0.003000	0.001353	0.000753			
56384	7987301	-0.104453	-9.757395	-0.006955	-0.007766	0.000167	-0.003347			
56385	7987326	-0.090613	-9.756734	-0.007921	-0.007057	0.001594	-0.005518			
56386	7987351	-0.096069	-9.763946	-0.037165	-0.006440	-0.001754	-0.006180	-90.299545	0.586435	-74.437416
56387	7987376	-0.112258	-9.746164	-0.002976	-0.001507	0.002544	-0.001042			
56388	7987401	-0.102981	-9.754803	-0.020269	-0.003093	-0.000010	-0.003809			
56389	7987426	-0.099971	-9.760200	-0.037135	-0.008138	-0.002553	-0.002848			
56390	7987451	-0.096449	-9.772552	-0.033279	-0.006233	-0.004531	-0.008184	-90.299408	0.585100	-74.437050
56391	7987476	-0.090093	-9.800142	-0.023736	-0.005671	-0.001271	0.002217			
56392	7987501	-0.107223	-9.765297	-0.019775	-0.005256	0.002030	0.000763			
56393	7987526	-0.099535	-9.762716	-0.027000	-0.001477	-0.004371	0.000268			
56394	7987551	-0.106002	-9.745300	-0.023627	-0.003861	0.002378	0.000057	-90.298889	0.586522	-74.437164
56395	7987576	-0.095789	-9.751570	-0.039528	-0.005333	-0.003861	0.000153			
56396	7987601	-0.103754	-9.774292	-0.018882	-0.005081	0.000480	0.000501			
56397	7987626	-0.101772	-9.779537	-0.014539	-0.001281	-0.000486	-0.002083			
56398	7987651	-0.128292	-9.748907	-0.022620	-0.008839	-0.002760	-0.003481	-90.298996	0.586770	-74.436539
56399	7987676	-0.110617	-9.743130	-0.045196	-0.004776	0.000736	-0.001100			
56400	7987701	-0.100474	-9.754498	-0.038061	-0.003552	0.000107	-0.006180			
56401	7987726	-0.117813	-9.739340	-0.050412	-0.001360	0.002094	-0.000528			
56402	7987751	-0.129232	-9.753548	-0.030223	-0.003332	-0.001933	0.005487	-90.298027	0.587379	-74.437004
56403	7987776	-0.122456	-9.769100	-0.000529	0.000013	-0.003050	-0.001526			
56404	7987801	-0.128838	-9.747058	-0.020173	-0.004292	-0.000286	-0.000402			
56405	7987826	-0.110922	-9.761371	-0.031266	-0.005767	-0.000775	-0.005727			
56406	7987851	-0.121007	-9.761089	-0.027407	-0.002775	-0.003874	0.000851	-90.296982	0.587340	-74.436111
56407	7987876	-0.111491	-9.758724	-0.018846	-0.004891	-0.002180	-0.007086			
56408	7987901	-0.121657	-9.753185	-0.016874	-0.006880	-0.001618	-0.000082			
56409	7987926	-0.109593	-9.766250	-0.021695	-0.002381	0.000145	0.003561			
56410	7987951	-0.116499	-9.772282	-0.036074	-0.008643	-0.002822	-0.001879	-90.297386	0.587512	-74.435471
56411	7987976	-0.133259	-9.760041	-0.043179	-0.005467	-0.002122	-0.005090			
56412	7988001	-0.114475	-9.757871	-0.014993	-0.004238	-0.000082	0.000684			
56413	7988026	-0.095078	-9.744196	-0.024646	-0.003710	-0.004336	0.003290			
56414	7988051	-0.133553	-9.753788	-0.018766	-0.008364	0.003073	-0.000115	-90.297653	0.588276	-74.435280
56415	7988076	-0.124270	-9.754207	-0.045600	-0.003311	-0.001435	-0.004387			
56416	7988101	-0.112347	-9.778772	-0.011651	-0.003633	-0.002915	0.002848			
56417	7988126	-0.133326	-9.764455	-0.034534	-0.005336	-0.001653	0.002284			
56418	7988151	-0.120915	-9.760446	-0.038021	-0.010462	0.000247	-0.003146	-90.298058	0.588889	-74.434746
56419	7988176	-0.115949	-9.782791	-0.031275	-0.003718	-0.004733	-0.002225			
56420	7988201	-0.120232	-9.756618	-0.008237	-0.006048	0.002724	0.001346			
56421	7988226	-0.120892	-9.776497	-0.012084	-0.007872	0.001524	-0.000639			
56422	7988251	-0.106797	-9.768963	0.003206	-0.004454	-0.001645	-0.002784	-90.298393	0.589205	-74.434738
56423	7988276	-0.090286	-9.784472	-0.024245	-0.007977	-0.001183	0.001071			
56424	7988301	-0.082687	-9.784537	-0.014184	-0.005309	-0.002694	-0.000101			
56425	7988326	-0.126726	-9.756925	-0.024487	-0.003518	-0.003056	-0.005357			
56426	7988351	-0.135460	-9.752398	-0.017197	0.002180	0.001317	-0.000866	-90.297630	0.589413	-74.434219
56427	7988376	-0.136014	-9.749115	-0.014860	-0.003979	-0.004347	-0.000168			
56428	7988401	-0.102042	-9.749057	-0.022729	-0.010373	-0.000922	-0.005904			
56429	7988426	-0.107570	-9.758838	-0.039028	-0.005570	0.001238	-0.005078			
56430	7988451	-0.101839	-9.768547	-0.020342	-0.009020	-0.001281	-0.005205	-90.298904	0.588011	-74.433739
56431	7988476	-0.115298	-9.760046	-0.028379	-0.004007	-0.003572	-0.001514			
56432	7988501	-0.124331	-9.758634	-0.034559	-0.002669	0.000845	-0.000399			
56433	7988526	-0.110217	-9.748215	-0.022176	-0.003295	0.002249	-0.002125			
56434	7988551	-0.108213	-9.752798	-0.031312	-0.005670	0.000659	-0.001940	-90.298317	0.588095	-74.434067
56435	7988576	-0.104364	-9.753181	-0.033679	-0.003004	0.003283	-0.003792			
56436	7988601	-0.115704	-9.773522	-0.015906	-0.001365	-0.001843	-0.000037			
56437	7988626	-0.098348	-9.788343	-0.026182	-0.012074	0.001399	0.005139			
56438	7988651	-0.109601	-9.754729	-0.030343	-0.006326	-0.005104	-0.001965	-90.298729	0.588952	-74.434029
56439	7988676	-0.070037	-9.793502	-0.038246	-0.007708	-0.002024	-0.002398			
56440	7988701	-0.106491	-9.778863	-0.031739	-0.002187	0.000016	0.000556			
56441	7988726	-0.134600	-9.746339	-0.009076	-0.001912	-0.001091	-0.004131			
56442	7988751	-0.117405	-9.745600	-0.013508	-0.002986	0.002640	-0.003347	-90.298012	0.588556	-74.434242
56443	7988776	-0.093029	-9.754862	-0.007895	-0.004061	-0.002292	-0.005931			
56444	7988801	-0.125766	-9.732999	-0.005890	-0.009350	-0.000505	-0.004177			
56445	7988826	-0.100774	-9.778351	-0.029932	-0.007741	0.001593	0.000767			
56446	7988851	-0.095455	-9.749478	-0.019872	-0.003716	-0.006804	-0.001790	-90.298683	0.587917	-74.433350
56447	7988876	-0.111194	-9.764421	0.013265	-0.007011	-0.005759	-0.001392			
56448	7988901	-0.106402	-9.753060	-0.012615	-0.003044	-0.001492	-0.002147			
56449	7988926	-0.098158	-9.756543	-0.026569	-0.003774	0.001073	-0.005336			
56450	7988951	-0.118272	-9.755566	-0.013005	-0.003654	-0.000474	-0.003742	-90.298340	0.587057	-74.432716
56451	7988976	-0.105259	-9.759367	-0.033202	-0.003496	0.002763	-0.001800			
56452	7989001	-0.114318	-9.766263	-0.024041	0.000155	0.000766	0.000106			
56453	7989026	-0.120168	-9.759469	-0.008195	-0.003408	-0.000212	-0.002968			
56454	7989051	-0.114774	-9.767288	-0.019744	-0.004265	0.000811	-0.001492	-90.297066	0.587121	-74.433594
56455	7989076	-0.095998	-9.780616	-0.032854	-0.006086	0.001691	0.000705			
56456	7989101	-0.108052	-9.770548	-0.018822	-0.002635	0.001745	-0.001685			
56457	7989126	-0.134198	-9.739210	-0.010049	-0.002183	0.001620	-0.003731			
56458	7989151	-0.104286	-9.759778	-0.037078	-0.002854	-0.001615	-0.002153	-90.296219	0.587070	-74.434395
56459	7989176	-0.115670	-9.754684	-0.038457	-0.004639	-0.000109	-0.008032			
56460	7989201	-0.112182	-9.752323	-0.002953	0.000134	-0.000988	-0.002669			
56461	7989226	-0.109610	-9.754725	-0.030315	-0.003447	-0.003052	-0.003566			
56462	7989251	-0.117727	-9.747602	-0.037463	-0.001781	-0.001152	-0.003108	-90.294746	0.585530	-74.433937
56463	7989276	-0.102917	-9.764820	-0.015908	-0.000183	0.003473	0.000626			
56464	7989301	-0.094960	-9.752661	-0.029914	-0.002125	0.000343	0.002609			
56465	7989326	-0.131084	-9.724813	-0.018203	-0.001954	0.001059	0.002997			
56466	7989351	-0.097217	-9.759373	-0.026555	-0.002795	-0.005364	-0.000438	-90.292900	0.587306	-74.434158
56467	7989376	-0.115130	-9.775538	-0.007783	-0.004870	-0.003020	-0.007662			
56468	7989401	-0.117499	-9.752864	-0.003411	-0.001809	-0.001909	0.002465			
56469	7989426	-0.088820	-9.750891	-0.016074	-0.004867	-0.002296	0.000866			
56470	7989451	-0.101164	-9.754993	-0.005456	-0.004981	0.000861	-0.003539	-90.292412	0.587118	-74.433556
56471	7989476	-0.084159	-9.778881	-0.012258	-0.007722	-0.001578	-0.003032			
56472	7989501	-0.095674	-9.777242	-0.005007	-0.003000	-0.005175	-0.003068			
56473	7989526	-0.085652	-9.785282	0.001141	-0.007465	-0.001113	0.001714			
56474	7989551	-0.090475	-9.761482	-0.038584	-0.004013	-0.000986	0.002474	-90.292732	0.587801	-74.432632
56475	7989576	-0.077730	-9.779377	-0.036748	-0.005668	-0.000001	-0.007588			
56476	7989601	-0.090596	-9.746255	-0.041482	-0.005291	-0.003605	-0.003822			
56477	7989626	-0.112130	-9.746279	-0.026502	-0.005729	-0.003867	-0.003114			
56478	7989651	-0.107678	-9.763034	-0.012149	-0.003040	-0.004146	-0.006013	-90.292694	0.585815	-74.431236
56479	7989676	-0.103208	-9.775167	-0.023224	-0.007917	-0.003450	-0.002338			
56480	7989701	-0.106138	-9.772921	-0.016955	-0.007223	-0.001116	-0.001943			
56481	7989726	-0.098761	-9.784889	-0.035171	-0.004545	-0.000481	0.000806			
56482	7989751	-0.159381	-9.740782	-0.020974	-0.003944	-0.003378	-0.001058	-90.293221	0.586105	-74.430351
56483	7989776	-0.114016	-9.749728	-0.019331	-0.007652	-0.001639	-0.002520			
56484	7989801	-0.110757	-9.744949	-0.018381	-0.005876	-0.003092	-0.002725			
56485	7989826	-0.119688	-9.766186	-0.002992	-0.005823	0.001828	0.001279			
56486	7989851	-0.115244	-9.764022	-0.016963	-0.009529	-0.002839	-0.002265	-90.294502	0.586168	-74.429825
56487	7989876	-0.107485	-9.765906	-0.042340	-0.003988	0.002237	-0.003152			
56488	7989901	-0.124876	-9.756543	-0.017270	-0.001267	0.003052	-0.005205			
56489	7989926	-0.127541	-9.733725	-0.022069	-0.002839	-0.001627	-0.002010			
56490	7989951	-0.102748	-9.767443	-0.030886	-0.006072	-0.000776	-0.002386	-90.293686	0.585275	-74.430519
56491	7989976	-0.117690	-9.768076	-0.001530	-0.004317	0.000291	-0.003859			
56492	7990001	-0.096268	-9.752132	-0.034277	-0.007024	-0.001051	-0.003415			
56493	7990026	-0.109887	-9.737410	-0.014992	-0.004956	-0.001726	-0.003676			
56494	7990051	-0.090588	-9.789671	-0.026129	-0.006561	-0.003958	-0.006317	-90.294106	0.583759	-74.429871
56495	7990076	-0.122544	-9.759909	-0.012055	-0.002646	-0.005874	-0.000373			
56496	7990101	-0.121920	-9.763643	-0.015930	-0.007705	0.000028	-0.007382			
56497	7990126	-0.111960	-9.760487	-0.027870	-0.001884	0.002728	-0.001742			
56498	7990151	-0.118252	-9.763771	-0.004426	-0.003307	0.000894	-0.001612	-90.293480	0.583103	-74.429871
56499	7990176	-0.146378	-9.748151	-0.024880	-0.003456	-0.000535	-0.002900			
56500	7990201	-0.128495	-9.765768	-0.036935	-0.003858	-0.001957	-0.001246			
56501	7990226	-0.142515	-9.759937	-0.026816	-0.004900	-0.000933	0.003190			
56502	7990251	-0.123108	-9.742558	-0.030751	-0.003213	0.000116	-0.000466	-90.292862	0.583841	-74.429741
56503	7990276	-0.103227	-9.779114	-0.012612	-0.002700	-0.001812	0.000162			
56504	7990301	-0.132094	-9.749455	-0.020676	-0.005345	0.000463	-0.005208			
56505	7990326	-0.127235	-9.763314	-0.010081	-0.002757	0.001545	-0.003792			
56506	7990351	-0.112587	-9.747399	-0.015455	-0.001961	-0.001551	-0.006635	-90.291847	0.582565	-74.429840
56507	7990376	-0.095846	-9.758080	-0.016551	-0.006828	-0.005177	-0.001898			
56508	7990401	-0.105402	-9.761268	-0.002605	-0.007606	-0.002870	-0.002076			
56509	7990426	-0.123693	-9.732755	-0.020229	-0.006312	0.000572	-0.006807			
56510	7990451	-0.118786	-9.748804	-0.021677	-0.006536	-0.000134	-0.002195	-90.292892	0.581654	-74.429024
56511	7990476	-0.111066	-9.753932	-0.021754	-0.007272	0.000693	-0.003725			
56512	7990501	-0.117545	-9.744191	-0.012074	-0.003827	0.001603	0.000435			
56513	7990526	-0.097586	-9.736329	-0.014101	-0.002865	-0.000712	0.000548			
56514	7990551	-0.093248	-9.764826	-0.039511	-0.003168	-0.003371	0.000092	-90.292480	0.582222	-74.429077
56515	7990576	-0.098602	-9.758824	-0.032258	-0.002731	-0.005300	-0.001074			
56516	7990601	-0.100665	-9.758396	0.000266	-0.006627	0.004837	-0.003961			
56517	7990626	-0.116965	-9.718281	-0.000136	-0.006595	-0.000128	-0.000389			
56518	7990651	-0.090140	-9.764923	0.001658	-0.006071	-0.000773	-0.003417	-90.292786	0.581901	-74.429153
56519	7990676	-0.111307	-9.781557	-0.015486	-0.009058	-0.001469	0.000052			
56520	7990701	-0.116658	-9.766329	-0.021636	-0.002420	-0.001036	-0.002465			
56521	7990726	-0.106701	-9.720457	-0.035155	-0.004931	-0.000298	-0.001615			
56522	7990751	-0.110644	-9.754045	-0.013573	-0.005490	-0.005224	-0.004402	-90.293076	0.581638	-74.428314
56523	7990776	-0.093937	-9.790160	-0.027559	-0.005953	0.003555	-0.003393			
56524	7990801	-0.119556	-9.755357	-0.028345	-0.001612	-0.000444	-0.005345			
56525	7990826	-0.129721	-9.743899	-0.041238	-0.002646	-0.003809	-0.000873			
56526	7990851	-0.121570	-9.750074	-0.034612	-0.006391	-0.002521	0.000234	-90.292580	0.581249	-74.428146
56527	7990876	-0.090895	-9.774770	-0.007938	-0.007339	-0.007580	-0.003769			
56528	7990901	-0.101147	-9.756329	-0.011669	-0.001384	0.000864	-0.003028			
56529	7990926	-0.129372	-9.733462	-0.040780	-0.003386	-0.000463	0.000490			
56530	7990951	-0.099121	-9.754560	-0.032895	-0.012970	-0.005479	-0.001051	-90.293312	0.581148	-74.426636
56531	7990976	-0.095893	-9.764166	0.008961	0.002253	-0.003214	-0.005312			
56532	7991001	-0.116369	-9.751063	-0.027486	-0.008912	-0.001982	-0.001618			
56533	7991026	-0.105916	-9.751588	-0.015537	-0.007030	-0.002664	-0.001051			
56534	7991051	-0.123581	-9.750843	-0.016348	-0.002655	-0.001420	-0.001378	-90.292778	0.580754	-74.425552
56535	7991076	-0.109156	-9.762629	-0.009713	-0.004233	0.003912	-0.003074			
56536	7991101	-0.109380	-9.756708	0.006065	-0.006726	-0.002135	0.000489			
56537	7991126	-0.107964	-9.751140	-0.015468	-0.002715	0.001046	0.005946			
56538	7991151	-0.111672	-9.743876	-0.028387	-0.002818	-0.000262	-0.001375	-90.292305	0.581980	-74.426239
56539	7991176	-0.121576	-9.747057	-0.045649	-0.007963	0.000623	0.001980			
56540	7991201	-0.101344	-9.761598	-0.039952	-0.002158	-0.001223	-0.003241			
56541	7991226	-0.142946	-9.756710	-0.020691	-0.013059	-0.000708	-0.004800			
56542	7991251	-0.163343	-9.737207	-0.009460	-0.003761	-0.003250	-0.002591	-90.293327	0.581688	-74.425888
56543	7991276	-0.114863	-9.763538	-0.016951	-0.008260	0.001907	-0.000060			
56544	7991301	-0.125841	-9.751595	-0.031707	-0.005271	-0.001535	-0.000344			
56545	7991326	-0.115767	-9.753747	-0.037486	-0.003950	-0.001253	-0.003295			
56546	7991351	-0.093566	-9.782589	-0.025627	-0.002813	-0.000583	-0.001505	-90.293373	0.581882	-74.425957
56547	7991376	-0.133674	-9.743502	-0.008652	-0.006273	-0.002457	-0.003487			
56548	7991401	-0.105818	-9.744944	-0.046645	-0.004819	0.002089	-0.004555			
56549	7991426	-0.111676	-9.742933	-0.027460	-0.003846	0.005919	-0.001912			
56550	7991451	-0.122799	-9.746337	-0.000077	-0.005552	0.003575	-0.000185	-90.293480	0.581380	-74.427574
56551	7991476	-0.083827	-9.775698	-0.003162	-0.006227	-0.001933	-0.000024			
56552	7991501	-0.102736	-9.746788	-0.016461	-0.004135	-0.004664	0.005662			
56553	7991526	-0.129406	-9.773130	-0.022144	-0.005685	-0.003028	-0.003494			
56554	7991551	-0.112907	-9.773129	-0.009233	-0.005382	-0.002043	0.002347	-90.293686	0.582965	-74.426216
56555	7991576	-0.098094	-9.774864	-0.007347	-0.001352	0.000092	0.001067			
56556	7991601	-0.134019	-9.740597	-0.043675	-0.006711	0.001481	-0.001281			
56557	7991626	-0.085703	-9.754683	-0.044809	-0.005998	0.002906	-0.004230			
56558	7991651	-0.101778	-9.781462	-0.013111	-0.003333	-0.000332	-0.002074	-90.293335	0.582987	-74.427109
56559	7991676	-0.099726	-9.785539	-0.024139	-0.005820	-0.000510	-0.002134			
56560	7991701	-0.107551	-9.771933	-0.020682	-0.000428	0.000876	-0.003418			
56561	7991726	-0.104179	-9.780514	-0.014513	-0.001688	0.000279	-0.001879			
56562	7991751	-0.116117	-9.770000	-0.029830	-0.004306	0.000426	0.001265	-90.292244	0.583050	-74.427574
56563	7991776	-0.116112	-9.767121	-0.031824	-0.011456	0.003587	-0.003825			
56564	7991801	-0.121579	-9.746676	-0.039460	-0.007160	0.001276	-0.002049			
56565	7991826	-0.088695	-9.798185	-0.026602	-0.007567	-0.001499	0.004022			
56566	7991851	-0.098324	-9.765589	0.006008	-0.007351	-0.000466	0.001459	-90.294197	0.583949	-74.428284
56567	7991876	-0.086947	-9.779996	-0.035709	-0.002702	-0.001931	0.001505			
56568	7991901	-0.096444	-9.748608	-0.016507	-0.004739	0.001706	-0.002062			
56569	7991926	-0.128423	-9.747106	-0.016308	-0.001484	0.000156	0.000177			
56570	7991951	-0.090694	-9.788269	-0.024723	-0.006795	-0.001875	0.002415	-90.293617	0.585180	-74.428360
56571	7991976	-0.126887	-9.752666	-0.024053	-0.008908	0.000288	0.003456			
56572	7992001	-0.133125	-9.741041	-0.045089	-0.003320	0.002073	0.006789			
56573	7992026	-0.123745	-9.750736	-0.054730	-0.005703	-0.002649	-0.006633			
56574	7992051	-0.109924	-9.776222	-0.021288	-0.008176	0.001460	-0.000192	-90.294510	0.586616	-74.428818
56575	7992076	-0.100933	-9.764582	-0.029829	-0.001778	0.005507	-0.001281			
56576	7992101	-0.095990	-9.781623	-0.028925	-0.001384	0.003132	-0.000840			
56577	7992126	-0.145843	-9.764595	-0.003298	-0.002763	-0.000264	-0.004059			
56578	7992151	-0.104895	-9.751863	-0.027978	-0.004686	-0.004239	-0.003822	-90.293182	0.586136	-74.429718
56579	7992176	-0.123309	-9.763433	-0.030803	-0.007282	0.001077	-0.004174			
56580	7992201	-0.099455	-9.775180	-0.018862	-0.003065	-0.002396	0.000671			
56581	7992226	-0.124851	-9.756887	-0.025442	-0.001580	-0.001144	-0.001824			
56582	7992251	-0.112907	-9.750809	-0.041349	-0.005659	0.002332	-0.004485	-90.292862	0.585678	-74.430008
56583	7992276	-0.137157	-9.766223	-0.014875	-0.005803	-0.001551	-0.005595			
56584	7992301	-0.100546	-9.765943	-0.003124	-0.011006	0.001396	-0.005189			
56585	7992326	-0.112367	-9.735650	-0.008252	-0.001599	-0.000180	-0.000732			
56586	7992351	-0.139154	-9.755166	-0.025849	-0.003362	0.000761	-0.002645	-90.293144	0.584589	-74.430328
56587	7992376	-0.138490	-9.772235	-0.025918	-0.004254	-0.001320	0.000168			
56588	7992401	-0.121230	-9.745550	-0.019274	-0.009492	-0.001802	-0.001939			
56589	7992426	-0.108092	-9.762812	-0.027523	-0.005044	-0.003019	-0.002725			
56590	7992451	-0.106125	-9.776783	-0.012594	-0.004153	-0.002807	-0.002018	-90.293556	0.584620	-74.429344
56591	7992476	-0.115754	-9.763016	-0.020753	-0.006530	-0.000393	-0.003096			
56592	7992501	-0.115943	-9.751183	-0.019251	-0.001960	-0.005411	-0.001460			
56593	7992526	-0.121701	-9.761305	0.017657	-0.002107	0.001299	-0.003667			
56594	7992551	-0.095116	-9.776624	-0.013174	-0.007379	-0.000224	-0.006618	-90.293282	0.583450	-74.428993
56595	7992576	-0.115801	-9.758675	-0.025536	-0.006160	0.000072	-0.000913			
56596	7992601	-0.100015	-9.769149	-0.009818	-0.006630	0.000764	-0.003220			
56597	7992626	-0.090047	-9.761800	-0.017484	-0.004259	-0.001650	-0.005284			
56598	7992651	-0.119693	-9.747722	-0.031232	-0.003432	-0.003313	-0.002663	-90.293365	0.582666	-74.428696
56599	7992676	-0.098280	-9.751894	-0.019854	-0.000992	-0.001457	-0.003497			
56600	7992701	-0.093867	-9.770966	-0.010326	-0.007886	0.004372	-0.000180			
56601	7992726	-0.119479	-9.771567	-0.023133	-0.008103	-0.003198	0.000300			
56602	7992751	-0.104440	-9.753877	-0.019346	-0.006558	-0.001428	-0.002652	-90.293900	0.582746	-74.428749
56603	7992776	-0.096555	-9.767909	-0.026563	-0.006951	0.002562	-0.006282			
56604	7992801	-0.108574	-9.765148	-0.030843	-0.005770	0.000079	-0.000076			
56605	7992826	-0.108749	-9.760386	-0.000716	-0.010496	0.001732	-0.001469			
56606	7992851	-0.131830	-9.728729	-0.042209	-0.004518	0.001140	0.001594	-90.295036	0.582805	-74.429840
56607	7992876	-0.105588	-9.771794	-0.028022	-0.008425	-0.003333	-0.002781			
56608	7992901	-0.102027	-9.755140	-0.028928	-0.004470	-0.000609	0.000298			
56609	7992926	-0.113429	-9.759706	-0.018382	-0.008322	-0.002426	-0.002134			
56610	7992951	-0.103716	-9.765303	-0.048095	-0.002947	-0.002389	0.000861	-90.295631	0.583219	-74.428864
56611	7992976	-0.117101	-9.762414	-0.029842	-0.007029	-0.003187	-0.005797			
56612	7993001	-0.124597	-9.775027	-0.018324	-0.003982	-0.002684	-0.008819			
56613	7993026	-0.127035	-9.779949	-0.008167	-0.003061	-0.005250	-0.005622			
56614	7993051	-0.101926	-9.773487	-0.007370	-0.004521	-0.000870	0.000814	-90.295433	0.581389	-74.427422
56615	7993076	-0.098168	-9.772099	-0.001698	-0.008945	0.003383	0.001933			
56616	7993101	-0.112984	-9.762144	-0.014023	-0.004084	-0.002860	-0.000095			
56617	7993126	-0.100393	-9.771257	-0.027942	-0.001951	-0.001404	0.000036			
56618	7993151	-0.112178	-9.771174	-0.042820	-0.005604	0.000723	-0.002128	-90.295555	0.582299	-74.427727
56619	7993176	-0.113695	-9.733982	-0.025050	-0.004067	0.000420	-0.004952			
56620	7993201	-0.111055	-9.760648	-0.016452	-0.003454	0.001667	-0.001742			
56621	7993226	-0.123605	-9.749974	-0.011038	0.000070	0.003600	-0.002573			
56622	7993251	-0.098960	-9.760414	-0.053393	-0.005610	-0.001210	0.000174	-90.294579	0.581946	-74.428658
56623	7993276	-0.104290	-9.759374	-0.032779	-0.006950	-0.001566	-0.003672			
56624	7993301	-0.127515	-9.742326	-0.018235	-0.000584	0.000301	0.001837			
56625	7993326	-0.122135	-9.772150	-0.049032	-0.009301	0.000206	-0.002249			
56626	7993351	-0.125694	-9.771800	-0.012973	-0.001335	-0.000624	-0.000733	-90.294334	0.582195	-74.428734
56627	7993376	-0.111334	-9.772470	-0.019776	-0.003384	0.001079	-0.004435			
56628	7993401	-0.118377	-9.753871	-0.000051	-0.001352	0.001831	-0.002128			
56629	7993426	-0.122905	-9.766574	-0.011161	-0.007953	-0.000030	-0.002696			
56630	7993451	-0.126343	-9.754586	-0.022198	-0.012079	-0.005078	-0.000791	-90.295029	0.581706	-74.428719
56631	7993476	-0.121392	-9.767349	-0.021238	-0.010327	-0.002278	-0.005589			
56632	7993501	-0.108067	-9.777349	-0.008314	-0.006548	0.000259	-0.001296			
56633	7993526	-0.114576	-9.752798	-0.005397	-0.005965	0.002268	0.000641			
56634	7993551	-0.093148	-9.772462	-0.036678	-0.006489	-0.001815	-0.003038	-90.296379	0.581322	-74.428795
56635	7993576	-0.114183	-9.776324	-0.018381	-0.006758	0.000764	-0.002511			
56636	7993601	-0.091133	-9.749752	-0.030960	-0.006442	-0.003164	0.000611			
56637	7993626	-0.111622	-9.751570	-0.021686	-0.004502	-0.003779	-0.001445			
56638	7993651	-0.093586	-9.784555	-0.021280	-0.001298	-0.002109	-0.002411	-90.296234	0.581461	-74.427902
56639	7993676	-0.096579	-9.781064	-0.004056	-0.005510	-0.002445	-0.003110			
56640	7993701	-0.102283	-9.766798	-0.042403	-0.010481	0.003548	0.000788			
56641	7993726	-0.101384	-9.732654	-0.009234	-0.000553	-0.001460	-0.005546			
56642	7993751	-0.110024	-9.775048	-0.004937	-0.004978	-0.002943	-0.000995	-90.296471	0.581140	-74.427750
56643	7993776	-0.093315	-9.774442	0.000206	-0.009868	-0.000326	-0.004241			
56644	7993801	-0.111570	-9.757805	-0.016901	-0.005256	-0.000043	-0.001365			
56645	7993826	-0.110030	-9.758575	-0.027446	-0.003819	0.000685	-0.004178			
56646	7993851	-0.119041	-9.758382	-0.047521	-0.002852	-0.000963	0.002861	-90.296738	0.581111	-74.427956
56647	7993876	-0.088541	-9.765096	-0.017507	-0.004439	-0.002041	-0.005671			
56648	7993901	-0.104394	-9.744074	-0.040402	-0.002991	0.000629	-0.006753			
56649	7993926	-0.110254	-9.747477	-0.008239	-0.000982	0.004154	-0.006482			
56650	7993951	-0.116697	-9.755604	-0.040906	-0.010480	-0.001043	-0.001606	-90.296608	0.579125	-74.428528
56651	7993976	-0.088340	-9.773250	-0.042409	-0.003439	-0.001051	-0.003429			
56652	7994001	-0.097013	-9.771168	-0.030872	-0.005434	0.003438	-0.002880			
56653	7994026	-0.094246	-9.774292	-0.010783	-0.005676	-0.005098	-0.001004			
56654	7994051	-0.115851	-9.759319	-0.015016	-0.006457	-0.002779	-0.001821	-90.296730	0.578776	-74.428032
56655	7994076	-0.119998	-9.773546	-0.017786	-0.003684	-0.003046	0.002278			
56656	7994101	-0.106642	-9.756948	-0.038022	-0.004198	-0.001456	-0.004520			
56657	7994126	-0.114936	-9.739515	-0.036522	-0.002566	-0.002791	-0.008562			
56658	7994151	-0.101401	-9.767177	-0.016017	-0.003707	0.001201	-0.006294	-90.295898	0.577282	-74.427483
56659	7994176	-0.099247	-9.751934	-0.018437	-0.007392	-0.001439	-0.002715			
56660	7994201	-0.109968	-9.739266	-0.017880	-0.005040	0.003780	0.002827			
56661	7994226	-0.135872	-9.744485	-0.038840	-0.003746	-0.001509	-0.003549			
56662	7994251	-0.107193	-9.771584	-0.011636	-0.002728	-0.000831	0.002924	-90.295738	0.578170	-74.427742
56663	7994276	-0.124322	-9.768452	-0.013524	-0.005403	-0.003992	-0.002985			
56664	7994301	-0.092792	-9.779531	-0.007878	-0.003591	-0.002342	-0.001958			
56665	7994326	-0.135909	-9.762573	-0.004362	-0.006735	0.004587	0.001878			
56666	7994351	-0.113342	-9.761333	-0.035612	-0.007258	-0.001372	0.001137	-90.296188	0.578841	-74.427643
56667	7994376	-0.103509	-9.763585	-0.004535	-0.006607	-0.003614	0.003174			
56668	7994401	-0.112475	-9.762573	-0.015916	-0.004719	-0.000875	-0.001429			
56669	7994426	-0.112180	-9.755985	-0.012655	-0.008556	0.001653	0.003596			
56670	7994451	-0.109080	-9.768284	-0.012159	-0.004654	-0.001203	-0.002076	-90.296837	0.580269	-74.427383
56671	7994476	-0.085278	-9.773785	-0.005531	-0.004853	0.001453	-0.000653			
56672	7994501	-0.086959	-9.779644	-0.027114	-0.005357	-0.000887	0.000553			
56673	7994526	-0.109960	-9.766656	-0.026538	-0.006711	-0.002594	-0.000922			
56674	7994551	-0.117372	-9.747720	-0.029837	-0.005600	-0.001401	0.000684	-90.297195	0.581181	-74.427193
56675	7994576	-0.107017	-9.778757	-0.007314	-0.002985	-0.001630	-0.007209			
56676	7994601	-0.130225	-9.748930	-0.023055	-0.005874	-0.000897	-0.001426			
56677	7994626	-0.133508	-9.747598	-0.019734	-0.009006	-0.001350	-0.007127			
56678	7994651	-0.116418	-9.745981	-0.018295	-0.000881	-0.003274	-0.005686	-90.297012	0.579070	-74.426468
56679	7994676	-0.065481	-9.799278	0.002008	-0.005367	-0.000623	0.000229			
56680	7994701	-0.098978	-9.763479	-0.039007	-0.005460	-0.001922	-0.002979			
56681	7994726	-0.116234	-9.772759	-0.004421	-0.002652	-0.001547	-0.001249			
56682	7994751	-0.105172	-9.776295	-0.012646	-0.007701	0.000300	-0.000010	-90.297195	0.579449	-74.426239
56683	7994776	-0.119714	-9.788712	-0.019256	-0.003847	-0.002415	-0.003749			
56684	7994801	-0.115380	-9.767044	-0.005385	-0.005013	-0.001648	0.002345			
56685	7994826	-0.110781	-9.774190	-0.030359	-0.006254	-0.005232	-0.002477			
56686	7994851	-0.113842	-9.735674	-0.007827	-0.007902	-0.001249	0.000368	-90.297630	0.579908	-74.425072
56687	7994876	-0.092742	-9.768182	-0.036189	-0.004542	-0.000489	-0.001819			
56688	7994901	-0.115828	-9.745105	-0.044212	-0.004835	-0.003532	-0.003496			
56689	7994926	-0.127864	-9.747929	-0.024096	-0.009449	-0.001025	-0.000012			
56690	7994951	-0.115304	-9.751363	-0.037472	-0.002876	-0.000657	-0.004193	-90.297890	0.579498	-74.424576
56691	7994976	-0.131142	-9.750319	-0.025944	-0.007525	-0.001246	-0.000271			
56692	7995001	-0.132689	-9.741282	-0.028805	-0.004637	-0.005715	-0.000364			
56693	7995026	-0.101087	-9.745063	-0.034729	-0.006080	-0.004978	-0.006002			
56694	7995051	-0.093474	-9.781874	-0.041408	-0.001019	-0.002818	-0.002609	-90.297737	0.579136	-74.422752
56695	7995076	-0.096138	-9.795811	-0.032292	-0.003394	-0.005129	-0.008447			
56696	7995101	-0.092298	-9.773058	-0.027547	-0.003615	-0.003828	-0.003183			
56697	7995126	-0.118005	-9.730559	-0.035102	-0.005138	0.002477	-0.001222			
56698	7995151	-0.087215	-9.791809	-0.038601	-0.002961	0.000061	-0.001884	-90.297058	0.577984	-74.422134
56699	7995176	-0.098655	-9.771204	0.001234	-0.005876	-0.000961	-0.002071			
56700	7995201	-0.133671	-9.747291	-0.008049	0.005282	0.000659	-0.001639			
56701	7995226	-0.122207	-9.738114	-0.041349	-0.007397	0.001411	0.003915			
56702	7995251	-0.087838	-9.756631	-0.012723	-0.005776	-0.001663	0.001898	-90.296165	0.579242	-74.422363
56703	7995276	-0.122703	-9.761673	0.010006	-0.001799	-0.002180	0.000027			
56704	7995301	-0.123086	-9.748393	-0.021161	-0.003478	-0.001438	0.000103			
56705	7995326	-0.106103	-9.741187	-0.012572	-0.001989	0.004086	-0.000195			
56706	7995351	-0.092153	-9.767985	-0.049187	-0.008166	-0.005725	-0.004719	-90.295525	0.579514	-74.421921
56707	7995376	-0.090926	-9.772796	-0.012705	-0.006732	-0.002073	-0.001244			
56708	7995401	-0.107693	-9.754772	-0.026057	-0.007032	-0.003058	-0.005670			
56709	7995426	-0.098287	-9.748507	-0.024707	-0.008126	-0.000422	-0.002256			
56710	7995451	-0.109387	-9.774101	-0.035074	-0.002989	0.003360	0.000764	-90.296227	0.579280	-74.421944
56711	7995476	-0.121030	-9.757225	-0.031318	-0.009654	-0.004448	0.002283			
56712	7995501	-0.109319	-9.773190	-0.032752	-0.005580	-0.000378	-0.003734			
56713	7995526	-0.123640	-9.744416	-0.034152	-0.006294	0.000918	0.004482			
56714	7995551	-0.108253	-9.777291	-0.042780	-0.004752	-0.004247	-0.004208	-90.297150	0.580067	-74.421104
56715	7995576	-0.105216	-9.766229	-0.018415	-0.004245	0.001837	-0.006740			
56716	7995601	-0.084266	-9.760457	-0.038582	-0.003855	0.004242	-0.002050			
56717	7995626	-0.108104	-9.758401	-0.037518	-0.002566	-0.000322	-0.002007			
56718	7995651	-0.113243	-9.774250	-0.028916	-0.006878	0.002840	0.001477	-90.296829	0.579686	-74.422630
56719	7995676	-0.125976	-9.777594	-0.037948	-0.007735	-0.000538	0.000314			
56720	7995701	-0.151300	-9.764378	-0.054135	-0.007889	0.000237	-0.001219			
56721	7995726	-0.113884	-9.749339	-0.044706	-0.006755	-0.005564	-0.002091			
56722	7995751	-0.104458	-9.749068	-0.023653	-0.001372	-0.005920	-0.003396	-90.297356	0.579734	-74.421257
56723	7995776	-0.115277	-9.761145	-0.018379	-0.006483	-0.002208	-0.006048			
56724	7995801	-0.111536	-9.752327	-0.034163	-0.004078	-0.001056	-0.002526			
56725	7995826	-0.112462	-9.757644	-0.027914	-0.003207	0.001799	-0.000973			
56726	7995851	-0.105349	-9.750398	-0.030841	-0.005901	0.001810	-0.004746	-90.297310	0.578646	-74.421608
56727	7995876	-0.123398	-9.765029	-0.019775	-0.007330	-0.005567	0.000155			
56728	7995901	-0.089424	-9.777040	-0.012708	-0.002685	-0.000522	-0.002716			
56729	7995926	-0.116144	-9.734172	-0.014467	-0.003715	-0.000277	-0.002007			
56730	7995951	-0.103972	-9.793669	-0.023657	-0.005159	-0.003205	0.000608	-90.297165	0.579046	-74.420570
56731	7995976	-0.091744	-9.766759	-0.036176	-0.004274	-0.003332	-0.005613			
56732	7996001	-0.097747	-9.763354	-0.014519	-0.000487	-0.001125	-0.000417			
56733	7996026	-0.100766	-9.766819	-0.039495	-0.003973	-0.002748	-0.004457			
56734	7996051	-0.093358	-9.763188	-0.022268	-0.003658	-0.000216	-0.003937	-90.296089	0.577936	-74.419800
56735	7996076	-0.107794	-9.781183	-0.035593	-0.000177	-0.003190	-0.004216			
56736	7996101	-0.094342	-9.762239	-0.023269	-0.008520	-0.000295	-0.001480			
56737	7996126	-0.121028	-9.752520	-0.028896	-0.009288	-0.000513	-0.005586			
56738	7996151	-0.095018	-9.749490	-0.019353	-0.001457	-0.000688	0.000355	-90.295998	0.577330	-74.419418
56739	7996176	-0.103674	-9.779652	-0.008842	-0.005779	-0.004326	-0.004721			
56740	7996201	-0.110579	-9.760661	-0.015462	-0.004183	0.000292	-0.003417			
56741	7996226	-0.114331	-9.767800	-0.017418	-0.006352	0.006528	-0.000811			
56742	7996251	-0.113130	-9.741606	-0.022173	-0.006129	0.000905	-0.003915	-90.296364	0.576459	-74.420235
56743	7996276	-0.105566	-9.780449	-0.020328	-0.005026	-0.001459	-0.001697			
56744	7996301	-0.115810	-9.757715	-0.025990	-0.006433	0.000583	-0.002253			
56745	7996326	-0.108855	-9.750736	-0.011160	-0.003517	-0.000465	-0.000793			
56746	7996351	-0.127292	-9.754695	-0.015386	-0.004038	-0.002617	-0.004900	-90.296234	0.576025	-74.419952
56747	7996376	-0.121818	-9.763700	-0.042255	-0.005224	-0.003406	-0.001313			
56748	7996401	-0.115943	-9.746669	-0.035192	-0.010359	-0.000581	0.001474			
56749	7996426	-0.096977	-9.769011	-0.047664	-0.005303	-0.000754	-0.000471			
56750	7996451	-0.114323	-9.745943	-0.050469	-0.005674	0.000779	-0.002380	-90.297195	0.576601	-74.419670
56751	7996476	-0.124179	-9.798844	-0.042702	-0.003204	0.001401	-0.006874			
56752	7996501	-0.094596	-9.779980	-0.011245	-0.005057	-0.003159	-0.008625			
56753	7996526	-0.104428	-9.740681	-0.044710	-0.001258	-0.001144	-0.002660			
56754	7996551	-0.117088	-9.776300	-0.021664	-0.002807	0.003754	0.000773	-90.296112	0.575064	-74.420113
56755	7996576	-0.114217	-9.769173	-0.020739	-0.005434	0.003240	-0.004295			
56756	7996601	-0.102199	-9.743375	-0.022211	-0.003263	-0.000530	-0.001179			
56757	7996626	-0.081074	-9.756893	-0.020410	-0.004701	-0.001395	-0.000989			
56758	7996651	-0.118728	-9.757376	-0.019775	-0.005099	-0.002816	0.001512	-90.295891	0.575323	-74.420189
56759	7996676	-0.071366	-9.797318	-0.037210	-0.003085	0.001529	-0.006753			
56760	7996701	-0.113731	-9.768522	-0.031768	-0.008012	-0.000030	-0.001739			
56761	7996726	-0.120519	-9.767450	-0.013574	-0.010087	0.000837	-0.002499			
56762	7996751	-0.111632	-9.794283	-0.020253	-0.005133	-0.003847	0.002591	-90.296814	0.575071	-74.420296
56763	7996776	-0.109622	-9.788836	-0.033731	-0.005613	0.000913	-0.004503			
56764	7996801	-0.107094	-9.766542	-0.031312	-0.003998	-0.001314	0.000808			
56765	7996826	-0.118513	-9.767241	-0.026426	-0.003597	-0.002220	-0.003880			
56766	7996851	-0.108557	-9.754075	-0.041420	-0.006643	-0.000985	-0.003481	-90.296791	0.574446	-74.420059
56767	7996876	-0.103158	-9.767302	-0.040411	-0.002886	0.001408	-0.006808			
56768	7996901	-0.111147	-9.756411	-0.014973	-0.003920	0.000113	-0.000404			
56769	7996926	-0.136226	-9.729695	-0.013452	-0.004400	-0.002810	-0.000031			
56770	7996951	-0.117015	-9.741169	-0.023102	-0.003366	0.003156	0.001217	-90.296051	0.574543	-74.420662
56771	7996976	-0.136119	-9.775173	-0.018241	-0.007391	0.000757	-0.000006			
56772	7997001	-0.107331	-9.782852	-0.019749	-0.000817	-0.001405	-0.007017			
56773	7997026	-0.092842	-9.757783	-0.034762	-0.006162	-0.002268	-0.004578			
56774	7997051	-0.112812	-9.762372	-0.029307	-0.000513	-0.004819	-0.004984	-90.295311	0.573136	-74.419846
56775	7997076	-0.122873	-9.765042	-0.017811	-0.002515	-0.002003	-0.003241			
56776	7997101	-0.092395	-9.768974	-0.015090	-0.003146	-0.004339	-0.001650			
56777	7997126	-0.083938	-9.751238	-0.020899	-0.005949	-0.002913	-0.005288			
56778	7997151	-0.117327	-9.751214	-0.018283	-0.002785	-0.001560	-0.003874	-90.294525	0.572075	-74.418617
56779	7997176	-0.099181	-9.788890	-0.021276	-0.001124	-0.003722	-0.004666			
56780	7997201	-0.104853	-9.783334	-0.048636	-0.009412	0.001688	-0.003076			
56781	7997226	-0.129658	-9.744274	-0.047957	-0.003177	-0.000976	0.000745			
56782	7997251	-0.096596	-9.763354	-0.045276	-0.004904	0.001189	0.001270	-90.294319	0.572224	-74.418671
56783	7997276	-0.108619	-9.766233	-0.022238	-0.008039	0.001204	0.002503			
56784	7997301	-0.088123	-9.762120	-0.026169	-0.006704	-0.000849	-0.000851			
56785	7997326	-0.100163	-9.740613	-0.046257	-0.007510	-0.001767	-0.001816			
56786	7997351	-0.133008	-9.776720	-0.038816	-0.004171	0.001574	-0.007065	-90.295265	0.572137	-74.419037
56787	7997376	-0.112233	-9.767118	-0.028886	-0.004481	-0.003147	-0.009136			
56788	7997401	-0.092138	-9.742135	-0.032802	-0.002497	0.001684	-0.001678			
56789	7997426	-0.109194	-9.743511	-0.049484	-0.001533	-0.004503	0.000146			
56790	7997451	-0.114833	-9.757596	-0.033216	-0.005871	-0.004767	0.001886	-90.294456	0.571843	-74.417793
56791	7997476	-0.094121	-9.790480	-0.006468	-0.007348	-0.000660	-0.000015			
56792	7997501	-0.111504	-9.767468	-0.005478	-0.008860	-0.003797	-0.002848			
56793	7997526	-0.129337	-9.741874	-0.018345	-0.010017	-0.001623	-0.005332			
56794	7997551	-0.083216	-9.765227	-0.036274	-0.007741	0.001197	-0.004812	-90.296478	0.570945	-74.417412
56795	7997576	-0.078564	-9.771760	-0.008489	-0.008100	-0.001720	-0.004186			
56796	7997601	-0.107481	-9.757746	0.013723	-0.006554	-0.001682	-0.001876			
56797	7997626	-0.130777	-9.741809	-0.023544	-0.004919	-0.000815	-0.002515			
56798	7997651	-0.113539	-9.761488	0.005175	-0.003611	-0.001639	-0.002274	-90.296936	0.570354	-74.416832
56799	7997676	-0.117104	-9.772743	-0.005848	-0.002733	-0.001365	-0.005157			
56800	7997701	-0.118818	-9.757149	-0.003494	-0.006413	0.000130	-0.000909			
56801	7997726	-0.124054	-9.750934	-0.010596	-0.003582	0.001402	-0.003214			
56802	7997751	-0.122224	-9.741324	-0.017370	-0.007600	0.003208	-0.002234	-90.297012	0.569659	-74.417648
56803	7997776	-0.110103	-9.786036	-0.031316	-0.005639	-0.002776	-0.007528			
56804	7997801	-0.114811	-9.758277	-0.019739	-0.003113	-0.003506	-0.006324			
56805	7997826	-0.127795	-9.749481	-0.016347	-0.005755	0.000834	-0.008468			
56806	7997851	-0.128811	-9.746464	-0.027892	-0.005478	0.002924	-0.002688	-90.297012	0.567026	-74.417572
56807	7997876	-0.138029	-9.770365	-0.023484	-0.004676	-0.002623	-0.002594			
56808	7997901	-0.120603	-9.761828	-0.009203	-0.005667	-0.003412	-0.002016			
56809	7997926	-0.126531	-9.764377	-0.033587	-0.001957	-0.002009	-0.009455			
56810	7997951	-0.121852	-9.775586	-0.010096	-0.001889	0.002459	-0.004560	-90.296188	0.565334	-74.417091
56811	7997976	-0.116739	-9.755236	-0.034168	-0.005695	0.001626	0.000122			
56812	7998001	-0.126490	-9.746117	-0.017748	-0.002100	0.001432	-0.001362			
56813	7998026	-0.144137	-9.744448	-0.017216	-0.004277	-0.000802	-0.001687			
56814	7998051	-0.115396	-9.754475	-0.020175	-0.000206	-0.000224	-0.003617	-90.295097	0.565351	-74.417686
56815	7998076	-0.117095	-9.781265	-0.007276	-0.004569	0.000620	0.000313			
56816	7998101	-0.121602	-9.748342	-0.023598	-0.006407	-0.002402	-0.003809			
56817	7998126	-0.131910	-9.741772	0.004265	-0.006481	0.000125	-0.000520			
56818	7998151	-0.107819	-9.755981	-0.008793	-0.005169	0.001182	-0.000718	-90.295502	0.565638	-74.417908
56819	7998176	-0.102406	-9.764261	-0.021334	-0.009641	-0.005485	-0.002983			
56820	7998201	-0.128916	-9.742308	-0.020710	-0.008695	0.001319	0.000384			
56821	7998226	-0.127410	-9.729077	-0.046557	-0.004931	-0.002566	-0.004709			
56822	7998251	-0.104982	-9.741820	-0.032764	-0.005847	0.000392	-0.003158	-90.296806	0.565086	-74.417282
56823	7998276	-0.142248	-9.744388	-0.019627	-0.003812	0.005284	0.000076			
56824	7998301	-0.117795	-9.755365	-0.026476	-0.005390	-0.003655	0.003365			
56825	7998326	-0.117076	-9.745770	-0.001542	-0.004804	-0.000162	-0.000468			
56826	7998351	-0.120948	-9.789689	-0.049479	-0.005871	0.000779	-0.003724	-90.296806	0.565949	-74.417915
56827	7998376	-0.121812	-9.778852	-0.013510	-0.008193	0.001517	-0.003265			
56828	7998401	-0.081830	-9.770089	-0.027136	-0.004323	-0.001840	-0.003487			
56829	7998426	-0.101724	-9.771580	-0.038971	-0.003289	-0.003566	-0.000617			
56830	7998451	-0.108718	-9.754885	-0.019342	-0.005870	0.000907	-0.001484	-90.297050	0.565633	-74.417793
56831	7998476	-0.112445	-9.773128	-0.008750	-0.005117	0.000034	0.004922			
56832	7998501	-0.111288	-9.747023	-0.008252	-0.002813	-0.000261	0.000231			
56833	7998526	-0.102048	-9.753334	-0.021748	-0.003394	-0.004537	-0.002737			
56834	7998551	-0.091548	-9.805221	-0.002607	-0.002800	-0.003231	-0.002155	-90.296211	0.566642	-74.416992
56835	7998576	-0.127102	-9.772766	-0.012940	-0.002235	-0.004715	-0.001904			
56836	7998601	-0.105943	-9.745222	-0.027463	-0.000688	-0.007266	-0.001672			
56837	7998626	-0.102662	-9.750581	-0.016910	-0.003226	-0.003360	0.002655			
56838	7998651	-0.111149	-9.741772	-0.040821	0.000849	0.003229	-0.001295	-90.294098	0.567287	-74.415558
56839	7998676	-0.131478	-9.755879	-0.034997	-0.002392	-0.003870	-0.001131			
56840	7998701	-0.145543	-9.738584	-0.029236	-0.006267	0.005619	-0.003380			
56841	7998726	-0.110723	-9.728362	-0.049030	-0.004207	-0.005791	-0.007805			
56842	7998751	-0.106192	-9.766209	-0.021755	-0.006296	0.000256	-0.000720	-90.293999	0.566379	-74.415344
56843	7998776	-0.124681	-9.775782	-0.030784	-0.007452	0.003025	0.001736			
56844	7998801	-0.111616	-9.743086	-0.048569	-0.007944	0.000431	0.003462			
56845	7998826	-0.122503	-9.741904	-0.041786	-0.003329	-0.002734	-0.005230			
56846	7998851	-0.138511	-9.764053	-0.033074	-0.004636	-0.001785	-0.004318	-90.294487	0.566725	-74.415497
56847	7998876	-0.095205	-9.765957	-0.029083	-0.012293	-0.002562	-0.002512			
56848	7998901	-0.109015	-9.773035	-0.011613	-0.002998	-0.000720	-0.003232			
56849	7998926	-0.125122	-9.758782	-0.057083	-0.003679	-0.003573	-0.000744			
56850	7998951	-0.117011	-9.777212	-0.024042	-0.000905	-0.004295	-0.001654	-90.294464	0.566509	-74.414185
56851	7998976	-0.128406	-9.784609	-0.014871	-0.001918	0.001693	0.001462			
56852	7999001	-0.119962	-9.768701	-0.024550	-0.006752	0.002640	-0.002366			
56853	7999026	-0.103514	-9.755289	-0.019850	-0.004469	-0.000736	-0.001051			
56854	7999051	-0.113891	-9.784968	-0.041753	-0.002199	-0.001939	-0.004715	-90.293831	0.566510	-74.414734
56855	7999076	-0.125958	-9.750934	-0.013000	-0.006090	0.001743	-0.005065			
56856	7999101	-0.096552	-9.771723	-0.025626	-0.004697	0.000280	-0.002520			
56857	7999126	-0.117929	-9.738678	-0.031783	-0.005731	-0.001343	-0.001432			
56858	7999151	-0.099934	-9.762085	-0.038077	-0.007342	0.002949	-0.002624	-90.294418	0.565791	-74.415565
56859	7999176	-0.101201	-9.736933	-0.039488	-0.004421	-0.000554	-0.003996			
56860	7999201	-0.112696	-9.752851	-0.000196	-0.009300	-0.002058	-0.002129			
56861	7999226	-0.121243	-9.743065	-0.026917	-0.004402	-0.002678	0.000286			
56862	7999251	-0.107464	-9.765392	-0.045173	-0.004072	0.002746	-0.002570	-90.294746	0.565564	-74.415527
56863	7999276	-0.110700	-9.779840	-0.033651	-0.001872	0.002082	-0.002319			
56864	7999301	-0.106787	-9.761590	-0.013550	-0.004002	-0.001381	-0.002465			
56865	7999326	-0.095994	-9.775311	-0.038569	-0.004365	-0.002091	-0.000478			
56866	7999351	-0.087336	-9.782392	-0.034323	-0.007674	-0.002612	-0.000858	-90.294456	0.565650	-74.415260
56867	7999376	-0.110918	-9.770144	-0.016402	-0.002207	-0.003743	-0.004660			
56868	7999401	-0.127664	-9.754265	-0.044141	-0.003105	-0.001170	0.000612			
56869	7999426	-0.116248	-9.744002	-0.054734	-0.003128	0.001216	-0.002898			
56870	7999451	-0.109715	-9.762794	0.001247	-0.008780	-0.001982	-0.001943	-90.294052	0.565349	-74.414749
56871	7999476	-0.092042	-9.796535	-0.012214	-0.003451	0.001210	-0.002642			
56872	7999501	-0.110557	-9.756142	-0.031732	-0.001904	-0.000955	-0.002596			
56873	7999526	-0.103387	-9.730827	-0.005457	-0.002323	0.000264	-0.002840			
56874	7999551	-0.104354	-9.757954	-0.032279	-0.004330	-0.005196	0.000148	-90.292908	0.565187	-74.414398
56875	7999576	-0.109732	-9.745728	-0.028941	-0.010590	0.004636	-0.001708			
56876	7999601	-0.107926	-9.746432	-0.012625	-0.001754	0.000469	-0.001951			
56877	7999626	-0.109366	-9.750718	-0.013575	-0.005445	0.004418	0.002575			
56878	7999651	-0.087008	-9.771544	-0.028995	-0.001377	-0.001596	-0.002794	-90.292839	0.565590	-74.415878
56879	7999676	-0.086609	-9.779013	-0.005588	-0.009155	-0.000438	-0.001802			
56880	7999701	-0.099737	-9.759665	-0.009743	-0.002114	-0.000046	0.002728			
56881	7999726	-0.141329	-9.748857	-0.005706	-0.001281	0.000098	0.003695			
56882	7999751	-0.100281	-9.787208	-0.008337	-0.002630	-0.002328	-0.001639	-90.292160	0.566978	-74.415802
56883	7999776	-0.082720	-9.770995	-0.030961	-0.005491	-0.003089	-0.002407			
56884	7999801	-0.091612	-9.747447	-0.026095	-0.002721	-0.001621	-0.003690			
56885	7999826	-0.130512	-9.757644	-0.042643	-0.000384	-0.004476	-0.000176			
56886	7999851	-0.134955	-9.750337	-0.032134	-0.006408	0.000128	0.000890	-90.291443	0.567176	-74.414803
56887	7999876	-0.121997	-9.770006	-0.024504	-0.009833	-0.003238	-0.000341			
56888	7999901	-0.121988	-9.760163	-0.047451	-0.006783	0.003469	-0.001654			
56889	7999926	-0.121839	-9.737081	-0.036946	-0.009944	-0.001888	-0.003155			
56890	7999951	-0.087675	-9.767079	-0.032705	-0.000986	-0.001855	-0.002345	-90.292542	0.567069	-74.414627
56891	7999976	-0.112757	-9.777750	-0.038389	-0.005773	-0.002395	-0.003296			
56892	8000001	-0.126732	-9.758751	-0.051273	-0.007866	-0.000748	-0.000720			
56893	8000026	-0.125238	-9.770214	-0.045010	-0.004761	-0.001785	-0.000152			
56894	8000051	-0.105066	-9.767419	0.006172	-0.003573	-0.002933	-0.001192	-90.292801	0.567272	-74.413818
56895	8000076	-0.114358	-9.781551	-0.008170	-0.005536	0.000654	-0.000462			
56896	8000101	-0.126936	-9.784479	-0.044079	-0.005621	0.003232	-0.002816			
56897	8000126	-0.103197	-9.782507	-0.029728	-0.000636	-0.003019	-0.004272			
56898	8000151	-0.109175	-9.770562	-0.008185	-0.001276	-0.001091	-0.005482	-90.291847	0.566367	-74.414108
56899	8000176	-0.118771	-9.763318	-0.024909	-0.004889	0.000341	-0.001362			
56900	8000201	-0.107285	-9.761113	-0.035530	-0.004865	0.001630	-0.000848			
56901	8000226	-0.103567	-9.755921	-0.030769	-0.005877	0.003229	-0.000320			
56902	8000251	-0.132701	-9.749688	-0.027711	-0.001271	-0.001088	-0.003304	-90.291412	0.566488	-74.415001
56903	8000276	-0.088928	-9.781778	-0.034197	-0.006390	0.001088	-0.001548			
56904	8000301	-0.115903	-9.764326	-0.018257	-0.006607	-0.000276	-0.002123			
56905	8000326	-0.098896	-9.751129	-0.030333	-0.006373	0.000767	-0.000264			
56906	8000351	-0.135533	-9.742814	-0.044963	-0.004801	-0.002377	-0.000095	-90.292030	0.566884	-74.415215
56907	8000376	-0.115689	-9.736556	-0.034992	-0.002396	-0.001363	-0.000156			
56908	8000401	-0.117191	-9.768391	-0.033073	-0.003584	-0.000609	-0.001369			
56909	8000426	-0.153635	-9.745587	-0.033374	-0.003131	0.005402	-0.003257			
56910	8000451	-0.110236	-9.759897	-0.024019	-0.003345	0.000042	-0.000852	-90.290970	0.567048	-74.416016
56911	8000476	-0.105269	-9.780890	-0.013042	-0.007354	-0.002870	-0.001179			
56912	8000501	-0.117218	-9.768070	-0.022996	-0.003944	-0.001654	-0.005154			
56913	8000526	-0.120998	-9.738864	-0.011993	-0.004382	0.002278	-0.005132			
56914	8000551	-0.139732	-9.751174	-0.029615	-0.006408	0.005467	-0.008507	-90.291313	0.565127	-74.416794
56915	8000576	-0.103950	-9.771938	-0.006798	-0.003067	-0.003123	-0.005879			
56916	8000601	-0.111929	-9.767776	-0.038362	-0.002767	-0.006020	0.000589			
56917	8000626	-0.106810	-9.757656	-0.044647	-0.003316	-0.000730	0.000170			
56918	8000651	-0.112738	-9.753853	-0.018191	-0.001724	-0.000638	-0.000410	-90.289993	0.565318	-74.415642
56919	8000676	-0.085972	-9.758133	-0.027499	-0.006311	-0.007306	0.002126			
56920	8000701	-0.101113	-9.762730	-0.017894	-0.009090	-0.000647	-0.004178			
56921	8000726	-0.113967	-9.767641	-0.017317	-0.007898	0.000219	-0.003792			
56922	8000751	-0.094891	-9.765948	-0.019796	-0.005195	-0.000449	-0.003415	-90.291206	0.564961	-74.414764
56923	8000776	-0.104886	-9.770727	-0.025504	-0.006291	0.000258	0.001463			
56924	8000801	-0.079454	-9.774487	-0.038585	-0.009654	-0.000781	-0.000200			
56925	8000826	-0.114869	-9.766192	-0.019700	-0.006554	0.004044	-0.006402			
56926	8000851	-0.113476	-9.768534	-0.020164	-0.005116	0.001368	-0.001676	-90.292336	0.564955	-74.415794
56927	8000876	-0.104298	-9.764123	-0.053223	0.000207	0.003347	0.002038			
56928	8000901	-0.112321	-9.776904	-0.031171	-0.002125	-0.000459	-0.002845			
56929	8000926	-0.117172	-9.771826	-0.025443	-0.006029	-0.002332	-0.003614			
56930	8000951	-0.077572	-9.780848	-0.023679	-0.003076	-0.000666	-0.003810	-90.291069	0.564729	-74.416084
56931	8000976	-0.122933	-9.768124	-0.023965	-0.006007	0.000764	-0.004685			
56932	8001001	-0.115799	-9.786208	0.016347	-0.000125	-0.000884	-0.006123			
56933	8001026	-0.130060	-9.767177	-0.030120	-0.002523	0.000052	-0.003542			
56934	8001051	-0.107635	-9.778386	-0.023510	-0.002998	0.001347	0.001009	-90.289879	0.563785	-74.416588
56935	8001076	-0.115003	-9.760988	-0.019222	-0.006314	0.000894	-0.002125			
56936	8001101	-0.124582	-9.761371	-0.001403	-0.004257	0.000279	-0.002578			
56937	8001126	-0.111332	-9.779668	-0.035508	-0.004472	-0.000884	-0.002588			
56938	8001151	-0.102818	-9.749138	-0.008268	-0.006460	-0.004798	-0.001962	-90.290115	0.563421	-74.416267
56939	8001176	-0.131418	-9.736909	-0.024384	-0.004502	-0.006318	-0.004344			
56940	8001201	-0.129502	-9.745532	-0.017647	-0.002182	-0.004520	-0.000300			
56941	8001226	-0.118179	-9.750436	0.001944	0.000952	-0.004010	0.002959			
56942	8001251	-0.109920	-9.756464	-0.000538	-0.004451	0.002605	-0.001353	-90.288734	0.563949	-74.414818
56943	8001276	-0.091686	-9.751360	-0.040480	-0.009400	-0.000703	0.000571			
56944	8001301	-0.112240	-9.750915	-0.023955	-0.003582	0.005721	-0.001019			
56945	8001326	-0.110572	-9.767401	-0.030236	-0.002865	0.001155	-0.001495			
56946	8001351	-0.120286	-9.754205	-0.032620	-0.005589	-0.001867	0.001134	-90.288940	0.564796	-74.415749
56947	8001376	-0.110229	-9.767759	-0.006299	-0.007555	-0.002487	-0.001879			
56948	8001401	-0.124818	-9.775710	-0.026373	-0.009224	-0.002122	0.001717			
56949	8001426	-0.110867	-9.749241	-0.008187	-0.005789	-0.001818	-0.004065			
56950	8001451	-0.114679	-9.739472	-0.030232	-0.003707	-0.000940	-0.005408	-90.289864	0.564389	-74.415031
56951	8001476	-0.126737	-9.730577	-0.031133	-0.003538	-0.003906	-0.000742			
56952	8001501	-0.116249	-9.758192	-0.047981	-0.008094	-0.003925	-0.003107			
56953	8001526	-0.106233	-9.763366	-0.042262	-0.005467	0.000326	-0.002451			
56954	8001551	-0.123568	-9.752816	-0.032607	-0.005275	-0.001608	-0.001177	-90.290192	0.564285	-74.414040
56955	8001576	-0.114711	-9.746689	-0.022498	-0.001138	-0.000755	0.000553			
56956	8001601	-0.133383	-9.740521	-0.007115	-0.003083	0.001656	-0.005136			
56957	8001626	-0.091477	-9.768497	-0.036646	-0.011741	0.002480	-0.002101			
56958	8001651	-0.123032	-9.768295	-0.013373	-0.002438	-0.006469	-0.001404	-90.289978	0.564106	-74.413940
56959	8001676	-0.117043	-9.786547	-0.024947	-0.005728	-0.003676	-0.000097			
56960	8001701	-0.088830	-9.752393	-0.032254	-0.001770	0.000717	-0.002396			
56961	8001726	-0.091094	-9.768242	-0.021654	0.000015	-0.000928	-0.000228			
56962	8001751	-0.099064	-9.777790	-0.024096	-0.005473	0.004855	-0.000435	-90.289009	0.564599	-74.414398
56963	8001776	-0.101266	-9.748342	-0.027374	-0.003374	-0.003262	-0.003050			
56964	8001801	-0.092945	-9.745378	0.002779	-0.003576	0.003329	-0.003529			
56965	8001826	-0.115239	-9.740991	-0.023498	-0.001813	-0.001930	-0.001259			
56966	8001851	-0.100311	-9.755098	-0.019709	-0.001884	-0.001872	-0.001121	-90.287651	0.564301	-74.414200
56967	8001876	-0.107581	-9.772884	-0.041775	-0.004582	-0.003530	-0.001447			
56968	8001901	-0.095067	-9.754980	-0.023620	-0.005838	-0.002001	0.000614			
56969	8001926	-0.104927	-9.761608	-0.032665	-0.004493	-0.001913	0.001191			
56970	8001951	-0.109304	-9.787673	-0.038408	-0.005072	-0.002183	-0.001180	-90.287674	0.565153	-74.413170
56971	8001976	-0.098313	-9.785552	-0.043233	-0.004910	0.002721	-0.004813			
56972	8002001	-0.099328	-9.751515	-0.036144	-0.009252	0.000849	0.000131			
56973	8002026	-0.099663	-9.764385	-0.033178	-0.005920	0.000709	0.000884			
56974	8002051	-0.109530	-9.784697	-0.015347	-0.002411	-0.000706	0.002927	-90.288055	0.565978	-74.414009
56975	8002076	-0.114222	-9.772123	-0.035010	-0.003658	-0.004755	-0.005560			
56976	8002101	-0.108045	-9.745752	-0.016390	-0.004847	-0.001085	-0.002204			
56977	8002126	-0.113216	-9.739812	-0.037436	-0.005841	-0.002202	-0.003295			
56978	8002151	-0.112042	-9.772915	-0.012489	-0.003479	0.002301	-0.002059	-90.287743	0.565076	-74.413475
56979	8002176	-0.116705	-9.770298	-0.031670	-0.005956	-0.000328	-0.001749			
56980	8002201	-0.110496	-9.735632	-0.029735	-0.003345	0.000042	-0.001428			
56981	8002226	-0.107608	-9.727633	-0.053739	-0.003664	-0.001900	0.000872			
56982	8002251	-0.112953	-9.769428	-0.023478	-0.000501	-0.002937	-0.001393	-90.286812	0.565513	-74.413078
56983	8002276	-0.134590	-9.757503	-0.014756	-0.002596	0.000697	-0.002839			
56984	8002301	-0.100189	-9.753798	-0.042380	-0.012308	-0.004120	-0.002007			
56985	8002326	-0.111757	-9.751441	-0.020179	-0.005041	-0.003415	-0.003238			
56986	8002351	-0.107667	-9.785282	-0.006276	-0.003693	-0.003251	-0.000358	-90.287346	0.565271	-74.411957
56987	8002376	-0.108237	-9.765185	-0.018295	-0.007913	-0.001658	-0.004376			
56988	8002401	-0.114634	-9.751113	-0.012457	-0.003609	0.002098	-0.005263			
56989	8002426	-0.089691	-9.779199	0.014262	-0.001542	-0.002581	-0.004463			
56990	8002451	-0.087284	-9.778017	0.000253	-0.008409	0.000148	-0.001992	-90.287567	0.563932	-74.411987
56991	8002476	-0.099761	-9.787525	-0.039873	-0.004490	0.001697	-0.003599			
56992	8002501	-0.125306	-9.778364	-0.008094	-0.004140	-0.001395	-0.002715			
56993	8002526	-0.125775	-9.768505	-0.032536	-0.002338	0.000574	-0.003034			
56994	8002551	-0.098588	-9.780844	-0.010134	-0.002468	0.000313	-0.003353	-90.286636	0.563085	-74.412491
56995	8002576	-0.114107	-9.756263	-0.017277	-0.004046	-0.000167	-0.003675			
56996	8002601	-0.099445	-9.751999	-0.004903	-0.002611	-0.002983	-0.002417			
56997	8002626	-0.085122	-9.756976	-0.008794	-0.004743	-0.002244	0.000286			
56998	8002651	-0.104274	-9.766682	-0.041317	-0.006084	-0.002661	-0.004327	-90.286285	0.562602	-74.411629
56999	8002676	-0.109094	-9.753664	-0.058524	-0.004351	-0.003020	-0.003944			
57000	8002701	-0.096027	-9.741902	-0.041786	-0.001122	-0.001669	-0.003047			
57001	8002726	-0.120149	-9.760489	-0.024902	-0.002967	-0.004423	-0.006454			
57002	8002751	-0.094759	-9.750056	-0.003897	0.001971	-0.004262	-0.001985	-90.284340	0.561374	-74.410034
57003	8002776	-0.100465	-9.733510	-0.035609	-0.005439	-0.000450	-0.001176			
57004	8002801	-0.116774	-9.767510	-0.028323	-0.007735	0.001192	-0.002564			
57005	8002826	-0.114393	-9.750572	-0.048427	-0.003800	0.001700	-0.009046			
57006	8002851	-0.097764	-9.766346	-0.027374	-0.001369	-0.001529	0.001952	-90.284119	0.560783	-74.410492
57007	8002876	-0.083481	-9.773667	-0.001616	-0.004412	0.001049	-0.005400			
57008	8002901	-0.112938	-9.759749	-0.036484	-0.005127	0.001293	-0.007123			
57009	8002926	-0.103262	-9.767599	-0.042222	-0.001405	-0.001101	-0.006247			
57010	8002951	-0.111628	-9.754147	-0.029308	-0.005159	-0.001548	-0.004639	-90.283577	0.558392	-74.410744
57011	8002976	-0.105886	-9.758396	-0.025462	-0.004376	-0.001985	-0.004454			
57012	8003001	-0.102168	-9.761955	-0.007217	-0.000164	0.002477	-0.004892			
57013	8003026	-0.108587	-9.748715	-0.009633	-0.004175	0.000100	0.001457			
57014	8003051	-0.123537	-9.762436	-0.024443	-0.005877	-0.002655	0.000484	-90.282829	0.558309	-74.410782
57015	8003076	-0.108351	-9.755492	-0.032147	-0.003946	0.003202	-0.000390			
57016	8003101	-0.135362	-9.737033	-0.019541	-0.001056	0.003003	0.001726			
57017	8003126	-0.109821	-9.763956	-0.006737	-0.003727	0.000042	-0.000530			
57018	8003151	-0.105319	-9.773100	-0.026009	-0.006731	-0.001822	0.002353	-90.282196	0.559717	-74.411743
57019	8003176	-0.106442	-9.785803	-0.033618	-0.006638	-0.001381	-0.004636			
57020	8003201	-0.112966	-9.763556	-0.035495	-0.005846	0.002262	-0.000839			
57021	8003226	-0.112937	-9.771980	-0.011988	-0.001742	0.003615	-0.006413			
57022	8003251	-0.130496	-9.769048	-0.032082	-0.006667	0.003789	-0.003512	-90.282364	0.558476	-74.413246
57023	8003276	-0.111744	-9.741200	-0.037934	-0.006682	-0.001960	-0.004767			
57024	8003301	-0.125516	-9.750469	-0.032520	-0.002955	-0.002345	-0.002658			
57025	8003326	-0.120279	-9.762049	-0.015824	-0.003365	0.000891	0.000118			
57026	8003351	-0.103158	-9.743537	-0.033639	-0.005107	-0.003357	-0.005612	-90.282104	0.557600	-74.412598
57027	8003376	-0.119094	-9.772272	-0.028803	-0.005448	-0.000384	-0.002517			
57028	8003401	-0.098421	-9.742923	-0.038970	-0.007345	0.001003	-0.003086			
57029	8003426	-0.107636	-9.771591	-0.033114	-0.005241	0.001170	-0.001866			
57030	8003451	-0.108534	-9.780746	-0.024490	-0.004075	0.000869	0.000240	-90.282433	0.557533	-74.413284
57031	8003476	-0.099723	-9.760262	-0.022585	-0.002527	-0.003821	-0.002991			
57032	8003501	-0.103065	-9.766567	-0.017352	-0.004421	-0.000232	0.001064			
57033	8003526	-0.119555	-9.740705	-0.014811	-0.001694	0.000261	-0.002456			
57034	8003551	-0.105443	-9.792979	-0.029312	-0.004321	-0.001855	-0.005284	-90.281425	0.557113	-74.412781
57035	8003576	-0.114471	-9.765358	-0.012033	-0.007056	-0.000289	-0.004630			
57036	8003601	-0.120691	-9.759648	-0.018201	-0.006261	0.001085	-0.003026			
57037	8003626	-0.098530	-9.769906	-0.042765	-0.004573	0.002275	-0.004236			
57038	8003651	-0.108163	-9.772587	-0.030695	-0.001878	0.000004	-0.002010	-90.281410	0.556094	-74.413528
57039	8003676	-0.110577	-9.767606	-0.016884	-0.008631	0.004977	-0.006907			
57040	8003701	-0.130600	-9.757521	-0.041189	-0.007154	0.000809	-0.003913			
57041	8003726	-0.102215	-9.766781	-0.001945	-0.001816	-0.003934	0.000216			
57042	8003751	-0.099099	-9.771622	-0.024529	-0.002728	0.002764	-0.002892	-90.281471	0.555138	-74.414490
57043	8003776	-0.111764	-9.782993	-0.035988	-0.004579	-0.001590	-0.001243			
57044	8003801	-0.132681	-9.749140	-0.032020	-0.001720	-0.000839	-0.002398			
57045	8003826	-0.115271	-9.769280	-0.035485	-0.004041	-0.002424	-0.002852			
57046	8003851	-0.102422	-9.770578	-0.033140	-0.004376	0.000346	0.000627	-90.280739	0.555274	-74.414169
57047	8003876	-0.100653	-9.749860	-0.052361	-0.005333	-0.001998	-0.002015			
57048	8003901	-0.106869	-9.752011	-0.040801	-0.005724	-0.001620	-0.001307			
57049	8003926	-0.101626	-9.751004	-0.040791	-0.002091	0.002842	-0.002444			
57050	8003951	-0.093740	-9.783484	-0.019817	-0.007029	-0.003389	-0.003684	-90.280792	0.554886	-74.413895
57051	8003976	-0.083483	-9.787409	-0.065359	-0.006670	-0.000140	0.000754			
57052	8004001	-0.126615	-9.746915	-0.018197	-0.006260	0.005420	0.001365			
57053	8004026	-0.116655	-9.765370	-0.044133	-0.006408	-0.000732	-0.005014			
57054	8004051	-0.103834	-9.775326	-0.003031	-0.012791	0.000571	-0.009163	-90.282524	0.554130	-74.414955
57055	8004076	-0.133350	-9.736403	-0.028210	-0.003180	-0.001317	-0.003809			
57056	8004101	-0.099379	-9.782857	-0.034659	-0.007026	-0.000863	-0.000982			
57057	8004126	-0.088036	-9.774841	-0.021727	-0.007400	-0.001919	-0.008547			
57058	8004151	-0.089835	-9.791958	-0.020725	-0.001019	-0.000687	-0.001250	-90.282356	0.553023	-74.414589
57059	8004176	-0.095905	-9.760118	-0.029885	-0.009978	-0.000526	0.001022			
57060	8004201	-0.113231	-9.750436	-0.025477	-0.007379	0.002563	0.002700			
57061	8004226	-0.132383	-9.729523	-0.042619	-0.005245	-0.002769	-0.001182			
57062	8004251	-0.126303	-9.762819	-0.032573	-0.005879	-0.003043	-0.004135	-90.283569	0.553766	-74.414398
57063	8004276	-0.095333	-9.775532	-0.013512	-0.001210	-0.000827	-0.000672			
57064	8004301	-0.112953	-9.739063	-0.023416	-0.000393	0.000367	0.003047			
57065	8004326	-0.107080	-9.779806	-0.023071	-0.004548	-0.000699	-0.003162			
57066	8004351	-0.085481	-9.764057	-0.011749	-0.008112	-0.000879	0.000557	-90.282776	0.554709	-74.414444
57067	8004376	-0.102909	-9.786630	-0.007205	-0.001419	-0.002113	0.001505			
57068	8004401	-0.111051	-9.771420	-0.016353	-0.005306	-0.005099	-0.002863			
57069	8004426	-0.121593	-9.763354	-0.024867	-0.001006	-0.003082	-0.001001			
