// General information: 
//  MT Manager version: 2022.0.0 
//  XDA version: 2022.0.0 build 7085 rev 119802 built on 2022-11-08
// Device information: 
//  DeviceId: 037004D1
//  ProductCode: MTi-300-2A5G4
//  Firmware Version: 1.4.1
//  Hardware Version: 2.1.0
// Device settings: 
//  Filter Profile: general(39.16)
//  Option Flags: Orientation Smoother Disabled, Position/Velocity Smoother Disabled, Continuous Zero Rotation Update Disabled, AHS Disabled, ICC Disabled
// Coordinate system: ENU
PacketCounter	SampleTimeFine	Acc_X	Acc_Y	Acc_Z	Gyr_X	Gyr_Y	Gyr_Z	Roll	Pitch	Yaw
20348	8724801	-0.221116	9.845453	-0.170458	-0.004105	0.001007	-0.002962			
20349	8724826	-0.238241	9.859366	-0.194296	-0.007316	-0.002792	-0.002395			
20350	8724851	-0.231260	9.869853	-0.191914	-0.008482	-0.000232	-0.003152	91.205124	0.844139	13.167185
20351	8724876	-0.239125	9.879482	-0.176604	-0.003405	0.003216	-0.002822			
20352	8724901	-0.230741	9.863133	-0.186205	-0.007723	-0.000089	-0.002891			
20353	8724926	-0.224303	9.853406	-0.196818	-0.003228	-0.000390	-0.000660			
20354	8724951	-0.243730	9.878232	-0.191932	-0.003000	0.002646	-0.001025	91.205345	0.844130	13.168234
20355	8724976	-0.213735	9.871139	-0.169153	0.000775	-0.001088	0.002722			
20356	8725001	-0.229420	9.877111	-0.200133	-0.004016	0.004433	-0.000890			
20357	8725026	-0.206655	9.845156	-0.200712	-0.005910	0.003298	-0.005381			
20358	8725051	-0.239718	9.867166	-0.209203	-0.002554	0.000322	-0.004372	91.206421	0.844192	13.169508
20359	8725076	-0.234454	9.898265	-0.191048	-0.002995	0.000513	0.000498			
20360	8725101	-0.219572	9.844732	-0.183898	-0.003085	-0.003240	-0.003110			
20361	8725126	-0.213314	9.852234	-0.204042	-0.005393	-0.002564	0.000744			
20362	8725151	-0.214265	9.856033	-0.204963	-0.008546	-0.006294	0.002143	91.206230	0.843137	13.168135
20363	8725176	-0.228811	9.865361	-0.205867	-0.006066	-0.002135	-0.006500			
20364	8725201	-0.229637	9.858640	-0.201994	-0.006747	-0.000589	-0.003283			
20365	8725226	-0.216844	9.858219	-0.194479	-0.002125	-0.001162	-0.006379			
20366	8725251	-0.225811	9.855848	-0.202070	-0.003514	0.002569	-0.003405	91.206337	0.844887	13.168268
20367	8725276	-0.204753	9.874153	-0.171998	-0.003171	-0.004534	-0.003503			
20368	8725301	-0.221264	9.873769	-0.191989	-0.007559	-0.002991	0.000557			
20369	8725326	-0.233711	9.870256	-0.189037	-0.008909	0.000918	-0.006095			
20370	8725351	-0.243992	9.884506	-0.167470	-0.006290	-0.000976	-0.004819	91.205307	0.845845	13.167468
20371	8725376	-0.241584	9.888535	-0.180938	-0.003764	0.000234	-0.004371			
20372	8725401	-0.203800	9.843008	-0.182509	-0.005877	0.002728	0.001669			
20373	8725426	-0.230176	9.893054	-0.188128	-0.006068	-0.002070	-0.005275			
20374	8725451	-0.248647	9.884238	-0.184733	-0.002967	-0.006855	-0.003256	91.205345	0.846418	13.166900
20375	8725476	-0.220195	9.853508	-0.169038	-0.002208	0.000018	0.000106			
20376	8725501	-0.198550	9.834951	-0.179159	-0.004590	-0.002171	-0.004132			
20377	8725526	-0.200276	9.853515	-0.153338	-0.003222	0.001745	0.001973			
20378	8725551	-0.242067	9.886514	-0.172769	-0.003949	0.002171	-0.003915	91.206062	0.846216	13.167439
20379	8725576	-0.229245	9.881282	-0.161257	-0.005709	0.000848	-0.005324			
20380	8725601	-0.232160	9.856778	-0.175196	-0.005017	-0.002560	-0.002851			
20381	8725626	-0.218833	9.856722	-0.160875	-0.005269	0.001839	0.001407			
20382	8725651	-0.225265	9.843594	-0.176066	-0.012088	-0.001517	0.000958	91.204781	0.846000	13.167510
20383	8725676	-0.238478	9.862809	-0.171335	-0.004809	0.000995	-0.004113			
20384	8725701	-0.235539	9.861051	-0.178066	-0.003926	-0.002934	-0.004262			
20385	8725726	-0.232234	9.859467	-0.164621	-0.005491	-0.003992	-0.004135			
20386	8725751	-0.217428	9.866192	-0.190101	-0.005913	0.001363	-0.002310	91.204590	0.847089	13.167167
20387	8725776	-0.216915	9.870694	-0.204081	-0.002545	-0.004141	-0.005040			
20388	8725801	-0.238742	9.875838	-0.155035	-0.004280	0.002356	-0.005904			
20389	8725826	-0.241535	9.882738	-0.173686	-0.005683	0.002469	-0.002180			
20390	8725851	-0.213637	9.869464	-0.183447	-0.004217	-0.003447	0.000221	91.204910	0.847890	13.167079
20391	8725876	-0.239423	9.855965	-0.158456	0.000063	0.002687	-0.005978			
20392	8725901	-0.229571	9.877634	-0.171856	-0.004156	-0.001578	-0.003034			
20393	8725926	-0.238483	9.862661	-0.161705	-0.005364	-0.001599	-0.002845			
20394	8725951	-0.227960	9.866849	-0.179012	-0.008872	-0.000109	-0.003465	91.205025	0.849031	13.167311
20395	8725976	-0.235896	9.883171	-0.166034	-0.005789	-0.000513	-0.005016			
20396	8726001	-0.257034	9.873767	-0.189425	-0.004804	0.001000	-0.001989			
20397	8726026	-0.238640	9.842091	-0.181863	-0.003766	0.000104	-0.004886			
20398	8726051	-0.222312	9.871207	-0.180039	-0.004736	0.000605	-0.005975	91.205017	0.850535	13.167802
20399	8726076	-0.249135	9.886599	-0.184163	-0.006914	0.000633	-0.003844			
20400	8726101	-0.236357	9.857952	-0.193380	-0.005095	-0.002307	-0.004576			
20401	8726126	-0.203927	9.828260	-0.211264	-0.007369	-0.005376	-0.001641			
20402	8726151	-0.232417	9.846099	-0.190508	-0.005163	0.002022	-0.003210	91.204201	0.851398	13.167383
20403	8726176	-0.239021	9.878239	-0.188069	-0.009193	-0.002314	-0.003602			
20404	8726201	-0.232994	9.889050	-0.177107	-0.004561	-0.004552	0.000349			
20405	8726226	-0.222551	9.861430	-0.192471	-0.004944	-0.002685	-0.000156			
20406	8726251	-0.225177	9.867070	-0.160441	-0.000528	-0.003001	-0.003435	91.204155	0.851367	13.165871
20407	8726276	-0.205913	9.855173	-0.172824	-0.011055	-0.003637	0.000685			
20408	8726301	-0.220885	9.876068	-0.185803	-0.005870	-0.001995	-0.003420			
20409	8726326	-0.227432	9.857514	-0.157987	-0.002007	0.002028	0.003901			
20410	8726351	-0.219511	9.880725	-0.180565	-0.002207	0.000085	0.002925	91.203835	0.849740	13.165623
20411	8726376	-0.231703	9.882018	-0.212082	-0.006819	-0.002065	0.000690			
20412	8726401	-0.223052	9.865915	-0.207399	-0.001700	-0.002250	-0.003818			
20413	8726426	-0.226475	9.855384	-0.172308	-0.005579	-0.005421	-0.006004			
20414	8726451	-0.234393	9.847395	-0.183798	-0.004795	0.000346	-0.004752	91.203835	0.850704	13.164570
20415	8726476	-0.220244	9.849973	-0.155128	-0.004493	-0.002806	0.000802			
20416	8726501	-0.221240	9.852916	-0.161876	-0.002560	-0.001290	-0.001888			
20417	8726526	-0.246595	9.866982	-0.171768	-0.004223	0.002880	-0.001924			
20418	8726551	-0.232742	9.856023	-0.156959	-0.007023	-0.006151	-0.003438	91.203903	0.850600	13.163786
20419	8726576	-0.225938	9.859180	-0.171950	0.003231	0.000241	0.002855			
20420	8726601	-0.228691	9.882816	-0.168474	-0.006281	0.003234	-0.001016			
20421	8726626	-0.209538	9.849744	-0.192964	-0.008836	-0.005019	0.000417			
20422	8726651	-0.226737	9.875710	-0.167530	-0.005913	-0.006844	-0.003764	91.204048	0.849789	13.162835
20423	8726676	-0.225361	9.882813	-0.166162	-0.003509	-0.001691	-0.002207			
20424	8726701	-0.225967	9.867891	-0.183851	-0.004770	-0.001900	0.002924			
20425	8726726	-0.224067	9.861769	-0.184347	-0.002834	-0.000583	-0.001244			
20426	8726751	-0.203981	9.853317	-0.174832	-0.004409	0.002816	-0.000130	91.204559	0.848837	13.162911
20427	8726776	-0.222474	9.879105	-0.169016	-0.003797	-0.000735	-0.004317			
20428	8726801	-0.212198	9.856775	-0.158949	-0.007214	0.000185	0.000507			
20429	8726826	-0.224464	9.852165	-0.177181	-0.001682	-0.000826	-0.003102			
20430	8726851	-0.218629	9.853485	-0.196756	-0.007713	-0.000088	-0.001420	91.204323	0.848986	13.162977
20431	8726876	-0.230714	9.857710	-0.173324	-0.004508	-0.004162	0.000930			
20432	8726901	-0.224886	9.854576	-0.181008	-0.005698	-0.003210	0.001128			
20433	8726926	-0.208438	9.825701	-0.171449	-0.002134	0.001301	-0.004180			
20434	8726951	-0.236629	9.864044	-0.157466	-0.003511	-0.001501	-0.002334	91.204742	0.848595	13.162156
20435	8726976	-0.270956	9.878695	-0.181777	-0.000967	0.001128	-0.000975			
20436	8727001	-0.229496	9.873869	-0.173299	-0.005107	-0.001529	-0.000215			
20437	8727026	-0.220909	9.855472	-0.204964	-0.004995	-0.000870	0.003316			
20438	8727051	-0.190499	9.841633	-0.174489	-0.000069	-0.002989	0.000207	91.205864	0.847222	13.161803
20439	8727076	-0.216971	9.866585	-0.182905	-0.006616	-0.002652	-0.001562			
20440	8727101	-0.220388	9.869713	-0.174324	-0.001696	-0.002241	-0.000931			
20441	8727126	-0.209300	9.855610	-0.173377	-0.005133	0.000986	-0.003342			
20442	8727151	-0.209939	9.879497	-0.184386	-0.006081	0.001110	0.000958	91.205811	0.846877	13.161677
20443	8727176	-0.224174	9.869885	-0.188202	-0.004135	0.001907	-0.003920			
20444	8727201	-0.219986	9.870131	-0.169441	-0.007996	-0.003846	-0.003938			
20445	8727226	-0.243985	9.860722	-0.194249	-0.009057	-0.000237	-0.001672			
20446	8727251	-0.236493	9.865433	-0.186231	-0.003302	-0.000010	-0.002648	91.204979	0.847578	13.161668
20447	8727276	-0.218058	9.882829	-0.191531	-0.006127	0.000396	0.000441			
20448	8727301	-0.215760	9.851488	-0.188705	-0.003698	-0.003497	0.001630			
20449	8727326	-0.216817	9.856174	-0.185795	-0.007886	-0.002676	-0.000148			
20450	8727351	-0.254317	9.842417	-0.184679	-0.001030	0.002873	-0.004232	91.205025	0.846868	13.161518
20451	8727376	-0.216295	9.860696	-0.201620	-0.006914	-0.001168	-0.001746			
20452	8727401	-0.228627	9.879626	-0.177113	-0.005780	0.005500	-0.002803			
20453	8727426	-0.218010	9.868402	-0.179562	-0.005466	0.001428	-0.006549			
20454	8727451	-0.245854	9.894345	-0.191977	0.000086	0.000043	-0.002268	91.205139	0.847713	13.162654
20455	8727476	-0.245703	9.907282	-0.168872	-0.005688	-0.003739	-0.004776			
20456	8727501	-0.210873	9.872378	-0.185843	-0.005274	0.001569	-0.001866			
20457	8727526	-0.201458	9.854312	-0.205999	-0.004341	-0.001840	-0.004327			
20458	8727551	-0.204636	9.880750	-0.199710	-0.008151	-0.004551	0.000034	91.204491	0.848254	13.161725
20459	8727576	-0.236893	9.901096	-0.191439	-0.006418	-0.002649	-0.002140			
20460	8727601	-0.245451	9.895520	-0.175574	-0.005719	0.001958	0.001927			
20461	8727626	-0.232052	9.855657	-0.194847	-0.002550	0.004455	-0.004423			
20462	8727651	-0.243759	9.869951	-0.176988	-0.008263	-0.001334	-0.005525	91.203918	0.848653	13.162365
20463	8727676	-0.227317	9.855411	-0.175656	-0.008009	0.003269	0.001034			
20464	8727701	-0.246615	9.879950	-0.181861	-0.001165	-0.000283	0.004782			
20465	8727726	-0.216063	9.853299	-0.151743	-0.007388	-0.002605	-0.003932			
20466	8727751	-0.229834	9.859970	-0.164633	-0.006588	0.000779	-0.000198	91.203316	0.847356	13.162790
20467	8727776	-0.230658	9.848590	-0.165598	-0.004934	0.001130	-0.001225			
20468	8727801	-0.214432	9.852245	-0.174781	-0.007907	0.000046	0.000061			
20469	8727826	-0.209614	9.844211	-0.171864	-0.009696	-0.000381	-0.001797			
20470	8727851	-0.199609	9.858540	-0.139882	-0.005785	0.003234	-0.007497	91.201965	0.847792	13.163658
20471	8727876	-0.235738	9.868731	-0.152687	-0.002484	-0.001547	-0.001246			
20472	8727901	-0.216113	9.873743	-0.185806	-0.004570	-0.000358	-0.000662			
20473	8727926	-0.203916	9.893748	-0.181126	-0.002828	-0.004837	0.001687			
20474	8727951	-0.230725	9.888819	-0.159844	-0.007612	-0.001056	0.000440	91.202164	0.846732	13.162816
20475	8727976	-0.222892	9.844245	-0.185721	-0.007588	0.001849	-0.003907			
20476	8728001	-0.221661	9.856552	-0.182449	-0.003237	0.001797	-0.003791			
20477	8728026	-0.253847	9.874365	-0.163969	-0.011279	-0.007321	-0.002147			
20478	8728051	-0.227809	9.852630	-0.179529	-0.004110	-0.001061	-0.003868	91.201111	0.847661	13.162444
20479	8728076	-0.227957	9.862372	-0.165613	-0.007200	-0.000012	0.000510			
20480	8728101	-0.226784	9.853144	-0.181490	-0.001897	-0.001851	0.000741			
20481	8728126	-0.237369	9.857638	-0.173718	-0.004745	-0.002810	0.000548			
20482	8728151	-0.227042	9.871229	-0.184918	0.002617	0.003128	-0.002074	91.202217	0.846656	13.162492
20483	8728176	-0.230971	9.879997	-0.172790	-0.005719	-0.000302	0.000624			
20484	8728201	-0.238294	9.875409	-0.219310	-0.001687	0.001568	-0.003925			
20485	8728226	-0.228865	9.858155	-0.169518	-0.000633	0.000684	-0.000536			
20486	8728251	-0.223890	9.874725	-0.162749	-0.003684	-0.000015	-0.001557	91.203247	0.846372	13.163029
20487	8728276	-0.217927	9.866580	-0.184307	-0.008816	0.000149	-0.002436			
20488	8728301	-0.225403	9.887230	-0.175220	-0.005810	0.002135	-0.005190			
20489	8728326	-0.219072	9.881276	-0.183825	-0.007561	0.000879	-0.004166			
20490	8728351	-0.210831	9.877874	-0.203583	-0.004613	-0.003204	-0.002983	91.202118	0.847436	13.163330
20491	8728376	-0.235234	9.882550	-0.188059	-0.008395	-0.000747	-0.000390			
20492	8728401	-0.233226	9.858940	-0.161766	-0.004558	-0.003007	-0.004002			
20493	8728426	-0.232567	9.850574	-0.172797	-0.003542	0.001405	-0.002767			
20494	8728451	-0.216121	9.845537	-0.202137	-0.001690	-0.000365	-0.001693	91.202232	0.847660	13.163224
20495	8728476	-0.263504	9.882476	-0.174607	-0.000469	0.001128	-0.005981			
20496	8728501	-0.249531	9.842910	-0.182334	-0.002442	-0.003029	-0.000738			
20497	8728526	-0.232429	9.848954	-0.190964	-0.006379	-0.001937	-0.001688			
20498	8728551	-0.205781	9.842314	-0.169505	-0.008695	0.000349	-0.001794	91.202347	0.848083	13.163007
20499	8728576	-0.223168	9.857167	-0.162304	-0.003676	0.003798	-0.000893			
20500	8728601	-0.239735	9.853315	-0.172764	-0.002611	-0.001547	-0.001630			
20501	8728626	-0.237381	9.866463	-0.192371	-0.009313	0.000010	-0.000456			
20502	8728651	-0.236122	9.875628	-0.170417	-0.003783	-0.000654	0.002480	91.202271	0.847100	13.163502
20503	8728676	-0.212941	9.883521	-0.171399	-0.007510	0.001860	0.002247			
20504	8728701	-0.216245	9.885573	-0.183964	-0.001954	0.001886	-0.001933			
20505	8728726	-0.200779	9.858070	-0.172522	-0.000715	0.003128	-0.003219			
20506	8728751	-0.219222	9.885314	-0.169087	-0.000970	0.000928	-0.004184	91.203407	0.847043	13.164928
20507	8728776	-0.220635	9.851630	-0.170459	-0.003581	0.000766	-0.000843			
20508	8728801	-0.217785	9.856142	-0.184382	-0.004300	-0.000805	-0.000536			
20509	8728826	-0.209184	9.845579	-0.168573	-0.003828	-0.003764	-0.002159			
20510	8728851	-0.233820	9.880551	-0.179470	-0.005263	-0.000817	-0.000845	91.203697	0.846634	13.164550
20511	8728876	-0.216862	9.850155	-0.163706	-0.009164	0.001182	0.001092			
20512	8728901	-0.238792	9.850915	-0.169394	-0.007875	0.000747	-0.002819			
20513	8728926	-0.221126	9.844451	-0.167081	-0.004305	0.003134	-0.004099			
20514	8728951	-0.216130	9.874444	-0.169472	-0.006483	-0.004578	0.001638	91.202423	0.846179	13.164900
20515	8728976	-0.212341	9.869740	-0.169025	-0.007665	0.004303	-0.001267			
20516	8729001	-0.236055	9.896032	-0.170384	-0.004742	0.002931	-0.004998			
20517	8729026	-0.234423	9.857449	-0.189970	-0.008278	-0.000611	-0.001612			
20518	8729051	-0.212743	9.854248	-0.149361	-0.008290	-0.002103	-0.000785	91.200958	0.846360	13.165830
20519	8729076	-0.225551	9.869327	-0.183878	-0.002058	0.001307	-0.000785			
20520	8729101	-0.218792	9.894475	-0.178524	-0.008127	0.000870	-0.000317			
20521	8729126	-0.226605	9.864357	-0.170284	-0.014894	-0.004162	-0.004050			
20522	8729151	-0.211891	9.879518	-0.187318	-0.003125	-0.003891	-0.004140	91.199623	0.846659	13.165284
20523	8729176	-0.239659	9.880413	-0.175200	-0.000335	0.000940	-0.007518			
20524	8729201	-0.225664	9.869136	-0.171370	-0.006291	0.001356	-0.003211			
20525	8729226	-0.246268	9.870964	-0.152130	-0.004297	-0.000803	-0.002137			
20526	8729251	-0.215857	9.880008	-0.160869	-0.008111	0.000229	-0.001869	91.199600	0.847713	13.165847
20527	8729276	-0.215062	9.851874	-0.150819	-0.006127	0.006662	-0.002155			
20528	8729301	-0.215446	9.848681	-0.159912	-0.007130	0.001802	0.000261			
20529	8729326	-0.223319	9.840383	-0.181478	-0.005041	-0.001848	-0.002071			
20530	8729351	-0.206097	9.838290	-0.187333	-0.002070	-0.002505	0.000922	91.199402	0.847087	13.166716
20531	8729376	-0.209609	9.844361	-0.182484	-0.003597	-0.005454	-0.006077			
20532	8729401	-0.230241	9.867538	-0.195335	-0.004423	0.001134	-0.000522			
20533	8729426	-0.237930	9.863691	-0.166544	-0.003089	0.001816	0.004801			
20534	8729451	-0.220287	9.872031	-0.201128	-0.005561	-0.004067	-0.006188	91.199707	0.847200	13.166066
20535	8729476	-0.230926	9.887568	-0.202066	-0.004731	-0.003332	-0.000866			
20536	8729501	-0.239343	9.911150	-0.199149	-0.002034	0.000593	-0.002192			
20537	8729526	-0.226862	9.858441	-0.186740	-0.004728	0.002550	-0.002240			
20538	8729551	-0.241397	9.874262	-0.177529	-0.006588	-0.003491	-0.002268	91.199837	0.847245	13.165847
20539	8729576	-0.239928	9.898610	-0.156033	-0.003576	-0.001307	-0.001238			
20540	8729601	-0.250426	9.874747	-0.186014	-0.011863	0.001450	-0.002098			
20541	8729626	-0.234471	9.862206	-0.190507	-0.006433	0.004205	-0.000240			
20542	8729651	-0.215621	9.872289	-0.182938	-0.005060	-0.001140	-0.003418	91.198700	0.847187	13.166593
20543	8729676	-0.247823	9.893291	-0.186157	-0.003012	0.004967	-0.004859			
20544	8729701	-0.234597	9.865957	-0.188129	-0.005597	-0.000508	-0.004312			
20545	8729726	-0.229198	9.855114	-0.187713	0.000197	-0.007701	-0.003017			
20546	8729751	-0.252697	9.873467	-0.197176	-0.003101	0.003870	-0.002624	91.199738	0.848259	13.166993
20547	8729776	-0.252532	9.886962	-0.179878	-0.005658	-0.000574	-0.004053			
20548	8729801	-0.247259	9.882200	-0.174595	-0.006039	0.001295	-0.004423			
20549	8729826	-0.232162	9.866446	-0.187252	0.000311	0.003417	0.000568			
20550	8729851	-0.241674	9.900862	-0.180467	-0.000572	-0.003251	0.000986	91.200752	0.848197	13.167401
20551	8729876	-0.222923	9.895258	-0.202017	-0.009553	0.005573	-0.000922			
20552	8729901	-0.234198	9.878336	-0.190955	-0.007901	-0.004217	0.000820			
20553	8729926	-0.200054	9.852128	-0.186842	-0.009009	0.000550	0.000335			
20554	8729951	-0.227540	9.870708	-0.182407	-0.004156	0.000690	-0.003591	91.199066	0.847622	13.168055
20555	8729976	-0.225404	9.850691	-0.175211	-0.004353	0.005017	-0.004336			
20556	8730001	-0.231158	9.858168	-0.171913	-0.000419	0.000249	0.000755			
20557	8730026	-0.234123	9.861992	-0.176600	-0.003710	-0.001632	-0.003923			
20558	8730051	-0.218008	9.874134	-0.181883	-0.009945	0.001757	-0.000428	91.199135	0.847694	13.169112
20559	8730076	-0.227304	9.880330	-0.159859	-0.008295	0.002103	-0.001781			
20560	8730101	-0.228995	9.861138	-0.147845	-0.006185	-0.001794	0.000760			
20561	8730126	-0.224295	9.866065	-0.155596	-0.003907	-0.000921	-0.001808			
20562	8730151	-0.216923	9.854486	-0.168098	-0.002176	0.000918	-0.001153	91.198921	0.847214	13.169442
20563	8730176	-0.214145	9.855999	-0.171487	-0.001463	-0.002050	-0.008550			
20564	8730201	-0.212138	9.849843	-0.170590	0.001030	0.000319	-0.005791			
20565	8730226	-0.221373	9.847325	-0.199714	-0.002161	-0.005989	-0.001645			
20566	8730251	-0.229336	9.858099	-0.166559	-0.006741	-0.002325	-0.000010	91.200272	0.848487	13.168303
20567	8730276	-0.218943	9.886349	-0.205991	-0.000584	-0.000726	0.001077			
20568	8730301	-0.228106	9.891902	-0.203958	-0.005190	-0.000678	0.001730			
20569	8730326	-0.204931	9.860632	-0.188237	-0.008665	-0.002617	-0.001805			
20570	8730351	-0.231391	9.881695	-0.191046	-0.001715	0.002673	0.000454	91.200668	0.847233	13.168381
20571	8730376	-0.213464	9.862044	-0.194490	-0.001623	-0.002292	0.001898			
20572	8730401	-0.212068	9.847534	-0.174818	-0.003393	-0.003566	-0.004065			
20573	8730426	-0.220623	9.853643	-0.178149	-0.001378	0.001971	0.000578			
20574	8730451	-0.201029	9.877878	-0.164346	-0.002608	-0.006194	-0.003311	91.202072	0.846913	13.167231
20575	8730476	-0.244573	9.892952	-0.161711	-0.003761	0.002636	-0.002107			
20576	8730501	-0.231886	9.849080	-0.199604	-0.007239	-0.000849	0.000261			
20577	8730526	-0.211910	9.854282	-0.213126	-0.006458	-0.007886	-0.003375			
20578	8730551	-0.243136	9.894973	-0.168939	-0.003470	-0.002852	-0.002967	91.201736	0.847067	13.166242
20579	8730576	-0.229888	9.877936	-0.192454	-0.005183	-0.001003	0.001530			
20580	8730601	-0.225432	9.855663	-0.190073	-0.007090	0.001989	-0.005881			
20581	8730626	-0.216490	9.837976	-0.204930	-0.007841	-0.000405	-0.001922			
20582	8730651	-0.211725	9.875902	-0.199693	-0.005800	0.000151	-0.001346	91.200745	0.847103	13.166641
20583	8730676	-0.242327	9.887077	-0.210159	-0.005071	-0.000618	-0.001608			
20584	8730701	-0.208058	9.846583	-0.202688	-0.001323	-0.002176	-0.004895			
20585	8730726	-0.209561	9.876819	-0.163836	-0.002155	0.000346	-0.000137			
20586	8730751	-0.222299	9.902759	-0.164193	-0.007403	-0.001691	-0.001545	91.201164	0.847240	13.166335
20587	8730776	-0.227627	9.884085	-0.189082	-0.005916	0.001629	-0.002553			
20588	8730801	-0.234656	9.866613	-0.168532	-0.001752	0.002030	-0.000194			
20589	8730826	-0.231957	9.845224	-0.194845	-0.003779	0.002432	-0.008519			
20590	8730851	-0.236069	9.863056	-0.185740	-0.002116	-0.001745	-0.009122	91.201942	0.849099	13.167303
20591	8730876	-0.218892	9.861082	-0.166685	-0.000006	0.001161	-0.000004			
20592	8730901	-0.230851	9.860044	-0.170361	-0.007303	0.000690	-0.007367			
20593	8730926	-0.217759	9.855649	-0.182922	-0.005807	0.002673	0.000209			
20594	8730951	-0.238732	9.872888	-0.147827	-0.004447	-0.002550	-0.005914	91.202118	0.849918	13.167872
20595	8730976	-0.224101	9.863086	-0.178120	-0.004224	0.001013	0.000261			
20596	8731001	-0.222768	9.862453	-0.166125	-0.004858	-0.007786	-0.003570			
20597	8731026	-0.203260	9.862121	-0.159496	-0.008664	-0.002620	-0.002956			
20598	8731051	-0.256921	9.902716	-0.189970	-0.002447	-0.000766	-0.003147	91.201920	0.850248	13.166720
20599	8731076	-0.207720	9.890869	-0.182017	-0.003517	-0.001103	0.001779			
20600	8731101	-0.221589	9.855088	-0.180503	-0.005475	0.000158	0.001091			
20601	8731126	-0.220643	9.853627	-0.176667	-0.004584	-0.002089	-0.001107			
20602	8731151	-0.231898	9.885027	-0.191970	-0.004517	0.000107	-0.000003	91.202034	0.848954	13.166562
20603	8731176	-0.219774	9.884013	-0.146972	-0.006279	-0.001025	-0.002375			
20604	8731201	-0.230123	9.889169	-0.181870	-0.007778	-0.000019	-0.001727			
20605	8731226	-0.229947	9.856096	-0.159876	-0.005564	-0.001928	-0.008343			
20606	8731251	-0.235364	9.891140	-0.190484	-0.006774	0.000186	-0.005896	91.200935	0.850543	13.166482
20607	8731276	-0.250008	9.872827	-0.184198	-0.005697	-0.001806	-0.009947			
20608	8731301	-0.243717	9.859727	-0.160320	-0.003549	-0.000535	-0.005519			
20609	8731326	-0.242846	9.872870	-0.180872	-0.004549	0.000745	-0.004545			
20610	8731351	-0.241944	9.878592	-0.182289	-0.007910	-0.002486	-0.007315	91.200531	0.853419	13.166236
20611	8731376	-0.241495	9.883787	-0.180433	-0.003727	0.001282	-0.001019			
20612	8731401	-0.223625	9.870970	-0.196855	-0.000471	-0.002344	-0.001182			
20613	8731426	-0.224190	9.847340	-0.203475	-0.005391	-0.002746	-0.000404			
20614	8731451	-0.222842	9.874032	-0.179079	-0.004086	-0.005968	-0.005357	91.201271	0.853543	13.165132
20615	8731476	-0.236011	9.853661	-0.160819	-0.002654	-0.000182	-0.001931			
20616	8731501	-0.207902	9.867713	-0.187778	-0.005309	-0.001396	-0.001226			
20617	8731526	-0.236440	9.855266	-0.173231	-0.006726	0.001031	-0.001463			
20618	8731551	-0.226328	9.851684	-0.178581	-0.004129	-0.000142	-0.000842	91.201309	0.853276	13.165298
20619	8731576	-0.220214	9.861839	-0.185808	-0.003763	0.000571	-0.002378			
20620	8731601	-0.245422	9.882839	-0.153046	-0.005604	0.000153	0.000711			
20621	8731626	-0.225477	9.859464	-0.190157	-0.000937	-0.000362	-0.006235			
20622	8731651	-0.247959	9.875371	-0.193832	-0.002351	0.002605	-0.000696	91.202179	0.853452	13.166016
20623	8731676	-0.224570	9.857203	-0.166105	-0.006849	0.000840	-0.001593			
20624	8731701	-0.228641	9.858150	-0.200612	-0.004263	-0.001952	0.000624			
20625	8731726	-0.228137	9.852322	-0.191531	-0.003889	-0.003754	0.000556			
20626	8731751	-0.211611	9.861094	-0.192115	-0.002836	-0.009042	-0.002363	91.202301	0.852843	13.164281
20627	8731776	-0.213790	9.848370	-0.200228	-0.002944	-0.001222	-0.001173			
20628	8731801	-0.223044	9.864378	-0.199690	-0.003333	0.003031	-0.003836			
20629	8731826	-0.215793	9.854278	-0.184899	-0.003804	-0.004071	0.002475			
20630	8731851	-0.213672	9.867631	-0.187287	-0.002266	-0.000633	-0.004373	91.203247	0.852791	13.164145
20631	8731876	-0.233216	9.879931	-0.201577	-0.004548	-0.001056	-0.000010			
20632	8731901	-0.226942	9.854375	-0.168534	-0.002913	0.003876	-0.004090			
20633	8731926	-0.241642	9.864569	-0.195777	-0.002953	0.001231	-0.001664			
20634	8731951	-0.212963	9.845884	-0.161440	-0.001182	-0.000018	0.002360	91.204292	0.852220	13.164991
20635	8731976	-0.200424	9.864074	-0.161438	-0.005220	0.003901	-0.001904			
20636	8732001	-0.214976	9.854046	-0.168960	-0.007530	-0.001693	0.000253			
20637	8732026	-0.225377	9.850279	-0.179475	-0.009735	0.001042	-0.001456			
20638	8732051	-0.224453	9.842296	-0.152675	-0.006442	0.002269	-0.001714	91.202858	0.851847	13.166062
20639	8732076	-0.220059	9.868914	-0.152745	-0.005479	0.000151	-0.001416			
20640	8732101	-0.219857	9.857239	-0.164181	-0.007723	-0.000019	-0.002877			
20641	8732126	-0.217453	9.860137	-0.166145	-0.007537	-0.003889	-0.001040			
20642	8732151	-0.209509	9.866717	-0.154640	-0.006655	-0.001155	-0.000645	91.201637	0.851668	13.165620
20643	8732176	-0.202138	9.822533	-0.176280	-0.006989	-0.002968	0.000244			
20644	8732201	-0.217572	9.846334	-0.194018	-0.001009	0.000358	-0.002320			
20645	8732226	-0.216599	9.845941	-0.198369	0.003622	-0.002529	-0.000492			
20646	8732251	-0.221675	9.890503	-0.168984	-0.003983	0.003345	-0.002423	91.203156	0.851340	13.165650
20647	8732276	-0.207113	9.881594	-0.195468	-0.005063	0.000864	-0.002882			
20648	8732301	-0.219480	9.874903	-0.171419	-0.005849	-0.004046	0.003314			
20649	8732326	-0.223772	9.873022	-0.175726	-0.005105	0.000286	-0.002819			
20650	8732351	-0.227856	9.865671	-0.194845	-0.003926	-0.002792	-0.003551	91.203003	0.851156	13.165111
20651	8732376	-0.211129	9.857622	-0.181963	-0.006235	0.001954	0.000073			
20652	8732401	-0.228348	9.861077	-0.174313	-0.000009	-0.000586	0.001581			
20653	8732426	-0.258957	9.879332	-0.182722	-0.004321	0.004774	0.005028			
20654	8732451	-0.249141	9.878797	-0.170831	-0.001800	0.000924	-0.002888	91.203941	0.849547	13.166381
20655	8732476	-0.202716	9.867634	-0.179153	-0.007525	0.000048	-0.002436			
20656	8732501	-0.231591	9.847185	-0.168457	-0.005485	0.000346	-0.000636			
20657	8732526	-0.200623	9.865289	-0.208983	-0.001518	-0.001922	-0.005025			
20658	8732551	-0.237474	9.892663	-0.168475	-0.004794	0.002480	-0.006661	91.203888	0.850609	13.166810
20659	8732576	-0.235216	9.912795	-0.179479	-0.005780	0.005636	-0.003877			
20660	8732601	-0.194503	9.860221	-0.183927	-0.010395	-0.002587	-0.003402			
20661	8732626	-0.229683	9.882884	-0.173327	-0.001797	-0.001346	-0.006364			
20662	8732651	-0.217383	9.883345	-0.162888	-0.000720	0.000797	-0.010593	91.203903	0.853024	13.167505
20663	8732676	-0.234204	9.860818	-0.161293	-0.002569	0.000979	-0.004105			
20664	8732701	-0.233492	9.858508	-0.196260	-0.005032	-0.002232	-0.003220			
20665	8732726	-0.223814	9.876375	-0.177661	-0.002940	-0.003557	-0.004451			
20666	8732751	-0.244729	9.885465	-0.200035	-0.007899	-0.000151	-0.001149	91.203995	0.853841	13.167101
20667	8732776	-0.213866	9.841283	-0.170982	-0.003064	-0.003423	-0.000858			
20668	8732801	-0.227688	9.852285	-0.188648	-0.003560	-0.003818	0.000872			
20669	8732826	-0.227427	9.866018	-0.186234	-0.005695	-0.005537	-0.002529			
20670	8732851	-0.230849	9.873909	-0.178017	-0.006880	-0.001805	0.003906	91.203903	0.852639	13.165290
20671	8732876	-0.245323	9.848743	-0.188033	-0.007509	-0.002861	-0.003664			
20672	8732901	-0.236411	9.862701	-0.193888	-0.003882	0.000045	-0.004625			
20673	8732926	-0.246874	9.896083	-0.182325	-0.002593	-0.001927	-0.000337			
20674	8732951	-0.221306	9.875627	-0.189180	-0.004348	0.000954	0.000452	91.203964	0.852775	13.165009
20675	8732976	-0.215486	9.869641	-0.196426	-0.000452	-0.002857	0.000872			
20676	8733001	-0.212491	9.883529	-0.171456	-0.004725	0.000556	-0.001729			
20677	8733026	-0.220786	9.864633	-0.182915	-0.003201	0.002706	-0.004804			
20678	8733051	-0.207983	9.864937	-0.161893	-0.007230	0.001162	0.001739	91.204445	0.852288	13.165504
20679	8733076	-0.225938	9.847124	-0.159376	-0.006157	-0.007100	-0.002347			
20680	8733101	-0.215505	9.856117	-0.180514	-0.005877	-0.006196	-0.006829			
20681	8733126	-0.204832	9.855048	-0.195396	-0.008944	0.000480	0.000459			
20682	8733151	-0.209702	9.854822	-0.183962	-0.003691	-0.000149	-0.004879	91.203613	0.853224	13.163948
20683	8733176	-0.229327	9.854764	-0.164648	-0.004478	-0.001509	-0.002059			
20684	8733201	-0.205184	9.847882	-0.192630	-0.002412	-0.001459	0.003637			
20685	8733226	-0.232872	9.875722	-0.174248	-0.003092	-0.002457	-0.001045			
20686	8733251	-0.210148	9.859757	-0.196934	-0.001234	0.001319	-0.003663	91.204689	0.852638	13.163627
20687	8733276	-0.261742	9.864433	-0.172645	-0.004034	-0.003238	-0.000210			
20688	8733301	-0.238351	9.898509	-0.178492	-0.007300	0.003028	-0.003116			
20689	8733326	-0.243996	9.863116	-0.195697	-0.007300	-0.003178	-0.002064			
20690	8733351	-0.232558	9.863766	-0.198206	-0.003813	0.002123	-0.000700	91.204178	0.852467	13.163719
20691	8733376	-0.212840	9.878551	-0.186801	-0.002366	-0.001346	-0.003995			
20692	8733401	-0.213619	9.879358	-0.209368	-0.001889	0.000091	-0.000334			
20693	8733426	-0.232775	9.870543	-0.176140	-0.004002	-0.000010	-0.000520			
20694	8733451	-0.246133	9.879518	-0.184730	-0.004666	-0.001575	-0.002445	91.205025	0.852473	13.163596
20695	8733476	-0.228943	9.875998	-0.189089	-0.006932	-0.004461	0.000493			
20696	8733501	-0.222142	9.867085	-0.189559	-0.008062	0.001015	0.001614			
20697	8733526	-0.205069	9.853085	-0.159945	-0.007316	-0.005056	-0.003743			
20698	8733551	-0.226200	9.867485	-0.157004	-0.007720	-0.001954	-0.002638	91.203423	0.852068	13.162373
20699	8733576	-0.222962	9.851432	-0.190572	-0.003006	0.000645	-0.002375			
20700	8733601	-0.241620	9.885412	-0.163204	-0.003196	0.002906	-0.002232			
20701	8733626	-0.197702	9.842898	-0.170541	-0.006181	-0.004517	-0.004514			
20702	8733651	-0.229353	9.847343	-0.145998	-0.002110	0.000791	-0.001475	91.204033	0.852540	13.162645
20703	8733676	-0.233127	9.859135	-0.175623	-0.008276	-0.000611	-0.001726			
20704	8733701	-0.216254	9.870823	-0.149858	-0.006369	0.004080	-0.002345			
20705	8733726	-0.209364	9.862299	-0.176738	-0.005807	-0.003931	-0.002204			
20706	8733751	-0.211909	9.864288	-0.153237	-0.003572	-0.003758	-0.003682	91.203293	0.852930	13.162333
20707	8733776	-0.222639	9.864090	-0.180472	-0.006537	0.001498	0.002255			
20708	8733801	-0.202418	9.849816	-0.192614	-0.004007	-0.002211	-0.001685			
20709	8733826	-0.193910	9.856653	-0.197922	-0.003396	-0.001366	-0.003539			
20710	8733851	-0.223563	9.869729	-0.207895	0.001432	0.000273	-0.002836	91.204193	0.852721	13.162361
20711	8733876	-0.231375	9.864257	-0.167082	-0.003529	0.003088	-0.004476			
20712	8733901	-0.206911	9.858002	-0.172924	-0.003380	-0.001617	-0.001174			
20713	8733926	-0.240847	9.871425	-0.178016	-0.004528	-0.001833	-0.001034			
20714	8733951	-0.234360	9.847464	-0.188049	-0.010073	-0.000645	-0.005314	91.203835	0.853392	13.162533
20715	8733976	-0.213245	9.861948	-0.156602	-0.003992	-0.000334	0.000122			
20716	8734001	-0.212108	9.852831	-0.180162	-0.000282	0.003602	-0.002694			
20717	8734026	-0.236940	9.865755	-0.176167	-0.000051	0.000641	0.001210			
20718	8734051	-0.236785	9.868206	-0.213102	-0.000082	-0.000261	0.001462	91.205917	0.852320	13.163308
20719	8734076	-0.212846	9.875037	-0.174331	-0.004402	0.000498	-0.000903			
20720	8734101	-0.220070	9.883982	-0.176213	-0.003982	0.001471	-0.001603			
20721	8734126	-0.204130	9.838882	-0.193069	-0.004195	-0.001885	0.002612			
20722	8734151	-0.219642	9.850834	-0.179482	-0.009647	0.000148	-0.000441	91.205437	0.851320	13.163605
20723	8734176	-0.212364	9.840035	-0.181545	-0.003786	-0.001049	-0.002836			
20724	8734201	-0.227685	9.875089	-0.158912	-0.003660	0.001352	-0.001986			
20725	8734226	-0.237296	9.884061	-0.164180	-0.003399	-0.000906	-0.000134			
20726	8734251	-0.210534	9.881828	-0.182025	-0.004597	-0.001714	-0.004500	91.205925	0.851635	13.163554
20727	8734276	-0.193355	9.875228	-0.171039	-0.005831	-0.003149	-0.001757			
20728	8734301	-0.225268	9.846451	-0.177634	-0.002688	0.001051	0.001019			
20729	8734326	-0.220695	9.858397	-0.179056	-0.010166	-0.003804	-0.001484			
20730	8734351	-0.205052	9.856522	-0.167680	-0.002174	0.000726	-0.002439	91.205620	0.851273	13.163099
20731	8734376	-0.263955	9.892617	-0.186126	0.000724	-0.001808	-0.002460			
20732	8734401	-0.221816	9.866898	-0.177200	0.000028	0.001930	-0.002569			
20733	8734426	-0.250560	9.883128	-0.175660	0.000951	-0.000836	-0.002393			
20734	8734451	-0.250860	9.868458	-0.177937	-0.008744	-0.000101	-0.002743	91.207321	0.851681	13.163253
20735	8734476	-0.244042	9.878532	-0.149742	-0.003254	0.000247	-0.005904			
20736	8734501	-0.234585	9.860987	-0.173294	-0.002925	0.000326	-0.002122			
20737	8734526	-0.231587	9.858402	-0.187659	-0.005111	0.000744	-0.000449			
20738	8734551	-0.206268	9.844223	-0.171001	-0.001895	0.000477	0.001909	91.208138	0.851569	13.163811
20739	8734576	-0.225633	9.872712	-0.188151	-0.006084	-0.003222	-0.002576			
20740	8734601	-0.225082	9.856200	-0.162769	-0.003497	-0.004078	-0.001760			
20741	8734626	-0.226683	9.873435	-0.174291	-0.000998	0.004041	-0.004670			
20742	8734651	-0.224473	9.851006	-0.163697	-0.005648	0.001381	-0.001083	91.208527	0.851973	13.163850
20743	8734676	-0.201443	9.876120	-0.174466	-0.000982	-0.004290	-0.000031			
20744	8734701	-0.233576	9.884805	-0.147879	-0.001302	0.004043	-0.000434			
20745	8734726	-0.222365	9.867605	-0.161793	-0.006476	0.001298	-0.000440			
20746	8734751	-0.222549	9.888781	-0.180990	-0.005299	-0.000177	-0.006409	91.209206	0.851972	13.164256
20747	8734776	-0.220525	9.873283	-0.159441	-0.003216	0.001220	-0.003399			
20748	8734801	-0.212123	9.852298	-0.176167	-0.010633	-0.001110	-0.004677			
20749	8734826	-0.250438	9.866031	-0.174646	-0.003839	-0.004034	-0.008744			
20750	8734851	-0.233213	9.860927	-0.167997	-0.005950	-0.001346	-0.004238	91.208534	0.853956	13.163832
20751	8734876	-0.248520	9.863445	-0.159752	-0.005849	0.001828	0.000528			
20752	8734901	-0.241590	9.881674	-0.166507	-0.004163	0.005083	-0.003950			
20753	8734926	-0.235945	9.850489	-0.170326	-0.009508	0.002018	-0.000747			
20754	8734951	-0.207239	9.844219	-0.171061	-0.002033	-0.003989	-0.003555	91.208168	0.853997	13.164831
20755	8734976	-0.231158	9.843767	-0.161766	-0.005442	0.002797	-0.002426			
20756	8735001	-0.234805	9.889771	-0.193885	-0.002556	0.000785	-0.000444			
20757	8735026	-0.262343	9.878453	-0.189827	-0.008780	0.001059	-0.003380			
20758	8735051	-0.203115	9.869774	-0.195027	-0.001967	0.002480	0.000192	91.208183	0.853800	13.166123
20759	8735076	-0.249142	9.882696	-0.177496	-0.006215	-0.003356	-0.003347			
20760	8735101	-0.241819	9.880211	-0.194811	-0.002149	-0.001788	0.001134			
20761	8735126	-0.235098	9.870184	-0.185289	-0.001843	0.000408	-0.001670			
20762	8735151	-0.238223	9.890599	-0.189092	-0.005139	-0.002691	-0.002642	91.208702	0.853708	13.165354
20763	8735176	-0.222516	9.884848	-0.172330	-0.006466	-0.001091	-0.001669			
20764	8735201	-0.235251	9.880296	-0.195306	-0.006571	0.001605	-0.009090			
20765	8735226	-0.244828	9.855205	-0.206277	-0.004606	-0.003652	-0.003868			
20766	8735251	-0.206688	9.847275	-0.184875	-0.007574	0.001803	0.000334	91.207756	0.854715	13.165450
20767	8735276	-0.218046	9.842813	-0.181426	-0.009869	-0.000562	0.003146			
20768	8735301	-0.251734	9.866543	-0.178470	-0.001261	0.004624	0.001365			
20769	8735326	-0.252931	9.889976	-0.191366	-0.005087	-0.000033	-0.000192			
20770	8735351	-0.235408	9.850597	-0.176600	-0.006494	-0.006783	-0.004455	91.207222	0.853695	13.165329
20771	8735376	-0.231847	9.884298	-0.205858	-0.004652	-0.004102	-0.003876			
20772	8735401	-0.227076	9.867037	-0.159450	0.000367	-0.002652	0.000286			
20773	8735426	-0.224961	9.861465	-0.196884	0.001726	-0.005412	-0.004281			
20774	8735451	-0.227580	9.866561	-0.159409	-0.003310	0.000454	-0.000647	91.209061	0.853904	13.163960
20775	8735476	-0.220375	9.884821	-0.199798	0.002569	-0.001325	0.000805			
20776	8735501	-0.232209	9.869409	-0.193916	-0.001739	-0.000754	-0.002453			
20777	8735526	-0.222602	9.866627	-0.191065	-0.003888	0.004710	0.000279			
20778	8735551	-0.239711	9.889764	-0.166128	0.001034	-0.005679	-0.000815	91.211464	0.853180	13.163795
20779	8735576	-0.229330	9.872813	-0.197760	-0.002445	-0.002700	-0.000213			
20780	8735601	-0.253306	9.884836	-0.196647	-0.005217	-0.004429	-0.001752			
20781	8735626	-0.235117	9.864755	-0.171317	-0.007690	0.001211	-0.002685			
20782	8735651	-0.213724	9.861016	-0.158035	-0.004734	0.005013	-0.001770	91.211319	0.853055	13.163959
20783	8735676	-0.212138	9.856805	-0.160920	-0.004610	-0.000918	0.003453			
20784	8735701	-0.203118	9.861573	-0.185973	0.002015	-0.002304	-0.003947			
20785	8735726	-0.228187	9.851320	-0.187603	-0.007905	0.001657	-0.003508			
20786	8735751	-0.238532	9.868392	-0.164628	-0.006747	-0.000128	0.000705	91.211517	0.852487	13.163984
20787	8735776	-0.201586	9.850067	-0.176791	-0.004493	0.001201	-0.003526			
20788	8735801	-0.230060	9.873718	-0.164176	-0.004768	-0.000422	-0.003783			
20789	8735826	-0.203935	9.846004	-0.161427	-0.005372	0.001003	0.001031			
20790	8735851	-0.220514	9.879768	-0.180126	0.000356	-0.004135	-0.000417	91.212158	0.852410	13.163927
20791	8735876	-0.206872	9.870841	-0.206023	-0.002657	-0.000054	-0.000586			
20792	8735901	-0.229487	9.880191	-0.183883	-0.002339	0.002278	-0.001599			
20793	8735926	-0.202475	9.854083	-0.191676	-0.000829	0.002886	-0.001921			
20794	8735951	-0.207456	9.870614	-0.191643	-0.002815	0.000711	-0.001283	91.213631	0.852121	13.165062
20795	8735976	-0.214565	9.872898	-0.191131	-0.003545	0.002204	0.002375			
20796	8736001	-0.219264	9.826511	-0.202071	-0.006446	-0.006332	-0.005290			
20797	8736026	-0.251830	9.880185	-0.201455	-0.005186	0.000864	-0.003652			
20798	8736051	-0.231100	9.886606	-0.170327	-0.008503	-0.005847	-0.002843	91.212936	0.852447	13.164046
20799	8736076	-0.246698	9.882240	-0.177008	-0.006707	-0.001286	0.001474			
20800	8736101	-0.225440	9.829407	-0.210202	-0.005597	0.001174	-0.006723			
20801	8736126	-0.219750	9.835948	-0.199247	-0.001344	-0.003189	0.001766			
20802	8736151	-0.219322	9.857029	-0.181477	-0.007159	-0.005959	-0.004518	91.212631	0.852577	13.162994
20803	8736176	-0.206412	9.871901	-0.212216	-0.004645	0.001711	-0.004673			
20804	8736201	-0.211476	9.857967	-0.205005	-0.006244	0.000015	0.000769			
20805	8736226	-0.239252	9.864116	-0.195770	-0.004441	0.001591	-0.002173			
20806	8736251	-0.237895	9.890145	-0.158846	-0.004995	-0.003327	-0.002649	91.212440	0.852780	13.163294
20807	8736276	-0.229341	9.850389	-0.158428	-0.003456	0.000507	-0.003144			
20808	8736301	-0.242677	9.866211	-0.180362	-0.007209	-0.004071	-0.000528			
20809	8736326	-0.209579	9.875371	-0.162856	-0.004399	-0.001505	0.000626			
20810	8736351	-0.214634	9.874656	-0.182495	-0.003712	-0.001101	0.001079	91.212448	0.852033	13.162685
20811	8736376	-0.225780	9.882398	-0.170509	-0.000495	-0.003433	0.001831			
20812	8736401	-0.239450	9.872908	-0.180881	-0.004184	0.001532	-0.002939			
20813	8736426	-0.218202	9.870296	-0.147977	-0.002341	0.002010	-0.003716			
20814	8736451	-0.226281	9.876424	-0.152746	-0.001228	-0.004804	0.000861	91.213943	0.851569	13.162264
20815	8736476	-0.235135	9.841403	-0.196206	-0.007525	0.000119	0.000452			
20816	8736501	-0.226993	9.859157	-0.171374	-0.007074	-0.000463	-0.004873			
20817	8736526	-0.249979	9.882993	-0.197592	-0.007002	0.003676	-0.003819			
20818	8736551	-0.215120	9.862584	-0.168568	-0.004582	-0.000091	-0.001733	91.212898	0.851941	13.163028
20819	8736576	-0.213598	9.871046	-0.193434	-0.009434	-0.000235	0.000069			
20820	8736601	-0.228475	9.856744	-0.170423	-0.004262	-0.000748	-0.010332			
20821	8736626	-0.239754	9.850420	-0.168907	-0.009450	-0.000378	-0.004859			
20822	8736651	-0.217182	9.867594	-0.156641	-0.001344	-0.005534	-0.004783	91.212059	0.853768	13.162355
20823	8736676	-0.227586	9.872323	-0.164226	-0.001246	-0.002217	0.000872			
20824	8736701	-0.235562	9.869112	-0.177623	0.001000	0.000010	0.001271			
20825	8736726	-0.228935	9.858582	-0.166614	-0.002803	-0.002073	-0.006236			
20826	8736751	-0.229630	9.855180	-0.192949	-0.003214	-0.003043	-0.003932	91.213829	0.853895	13.161592
20827	8736776	-0.245149	9.871096	-0.190904	-0.008564	-0.001979	-0.006540			
20828	8736801	-0.208593	9.839553	-0.177732	-0.003727	-0.000854	-0.002190			
20829	8736826	-0.240006	9.847806	-0.185203	-0.005783	-0.002170	0.001918			
20830	8736851	-0.226743	9.883286	-0.166959	-0.013947	-0.000894	0.003096	91.211952	0.853396	13.161044
20831	8736876	-0.244383	9.886971	-0.174137	-0.008282	-0.002351	0.000378			
20832	8736901	-0.232616	9.860797	-0.190527	-0.004862	0.002743	-0.002810			
20833	8736926	-0.196287	9.858836	-0.187720	-0.011750	-0.001758	0.004043			
20834	8736951	-0.218791	9.861277	-0.180036	-0.006361	0.004084	0.001626	91.210175	0.851878	13.161698
20835	8736976	-0.252429	9.881629	-0.172229	-0.004065	0.000186	0.000831			
20836	8737001	-0.225263	9.845625	-0.185266	-0.005022	0.002104	0.002192			
20837	8737026	-0.238808	9.850942	-0.171290	-0.006154	0.000580	-0.007363			
20838	8737051	-0.226741	9.852364	-0.191978	-0.006443	0.002334	-0.001459	91.209755	0.851648	13.162729
20839	8737076	-0.218179	9.851393	-0.183848	-0.005153	-0.002356	-0.000528			
20840	8737101	-0.257261	9.864516	-0.206245	-0.003193	0.003043	0.001103			
20841	8737126	-0.233814	9.850391	-0.194383	-0.003424	0.002265	0.001287			
20842	8737151	-0.270337	9.877894	-0.191298	-0.004902	-0.001703	0.002687	91.210091	0.849944	13.163149
20843	8737176	-0.242457	9.887023	-0.176182	-0.000305	-0.003372	0.001389			
20844	8737201	-0.221350	9.843983	-0.198762	-0.001752	-0.000298	0.000174			
20845	8737226	-0.235738	9.872725	-0.166012	-0.007905	-0.000347	-0.002235			
20846	8737251	-0.229087	9.887770	-0.183396	-0.001739	-0.000550	0.001843	91.211075	0.848747	13.162732
20847	8737276	-0.223921	9.890306	-0.189125	-0.003572	-0.003627	-0.002271			
20848	8737301	-0.240784	9.839991	-0.201543	-0.004506	-0.000338	0.000511			
20849	8737326	-0.240859	9.869070	-0.179000	-0.005235	-0.001654	-0.003473			
20850	8737351	-0.235145	9.868707	-0.181837	-0.008312	-0.003913	-0.004950	91.210663	0.849188	13.161657
20851	8737376	-0.238425	9.862828	-0.172275	-0.002971	0.001620	-0.002949			
20852	8737401	-0.227369	9.858394	-0.184337	-0.005196	0.000797	-0.004417			
20853	8737426	-0.214917	9.863552	-0.200619	-0.007442	0.001213	-0.003447			
20854	8737451	-0.226694	9.873798	-0.167035	-0.006565	0.000134	-0.000703	91.210190	0.849780	13.162482
20855	8737476	-0.235709	9.875822	-0.182422	-0.001974	0.004798	-0.003578			
20856	8737501	-0.211198	9.853647	-0.170510	-0.003631	-0.002149	-0.005339			
20857	8737526	-0.234945	9.858331	-0.186159	-0.007777	0.004055	-0.000612			
20858	8737551	-0.222777	9.870738	-0.180064	-0.004619	-0.001000	-0.002828	91.210335	0.850488	13.163584
20859	8737576	-0.224757	9.874453	-0.177108	-0.007711	-0.002541	-0.003085			
20860	8737601	-0.225063	9.865967	-0.180958	-0.006855	0.001161	0.000142			
20861	8737626	-0.219162	9.849512	-0.185791	-0.004166	-0.003189	-0.003166			
20862	8737651	-0.201454	9.847964	-0.194529	-0.005175	-0.001526	-0.001997	91.209587	0.850622	13.163004
20863	8737676	-0.199058	9.875226	-0.175374	-0.002858	-0.004263	-0.003625			
20864	8737701	-0.231865	9.873838	-0.173736	-0.003806	-0.002271	-0.001045			
20865	8737726	-0.203711	9.862261	-0.169089	-0.003283	-0.000913	-0.004570			
20866	8737751	-0.212015	9.886577	-0.183929	-0.005928	-0.002253	-0.004117	91.209991	0.851517	13.161925
20867	8737776	-0.188795	9.858354	-0.181131	-0.008075	0.001140	-0.001849			
20868	8737801	-0.210873	9.834926	-0.187295	-0.003637	-0.001824	-0.004247			
20869	8737826	-0.237790	9.877793	-0.157424	-0.002104	0.000273	-0.005199			
20870	8737851	-0.244730	9.863059	-0.161660	-0.007498	0.000688	-0.006270	91.209641	0.852987	13.162280
20871	8737876	-0.232233	9.899992	-0.178067	-0.007980	-0.002098	-0.005323			
20872	8737901	-0.216505	9.843117	-0.199673	-0.004484	0.001472	0.004432			
20873	8737926	-0.230124	9.861630	-0.211640	-0.004244	-0.000869	-0.006360			
20874	8737951	-0.213386	9.868444	-0.147023	-0.005674	-0.001854	-0.001226	91.209129	0.853167	13.162099
20875	8737976	-0.214499	9.855116	-0.175771	-0.003187	-0.003819	-0.003296			
20876	8738001	-0.224485	9.852099	-0.173342	-0.003682	0.001799	-0.003520			
20877	8738026	-0.243689	9.880343	-0.205276	-0.007349	0.000376	-0.002234			
20878	8738051	-0.209325	9.868900	-0.204558	-0.003622	0.001726	-0.006279	91.209267	0.854315	13.162419
20879	8738076	-0.223043	9.862852	-0.193007	-0.001898	0.000219	-0.001548			
20880	8738101	-0.237579	9.867549	-0.169912	-0.002973	-0.002390	-0.003611			
20881	8738126	-0.240789	9.874005	-0.191926	-0.004371	-0.000276	0.001030			
20882	8738151	-0.238713	9.885086	-0.170370	-0.004254	-0.000019	0.000130	91.210030	0.853850	13.162331
20883	8738176	-0.221529	9.852926	-0.193963	-0.003190	-0.001685	-0.004184			
20884	8738201	-0.242605	9.855731	-0.177016	-0.007609	-0.001763	-0.003463			
20885	8738226	-0.239364	9.874625	-0.200056	-0.006104	0.001495	-0.003065			
20886	8738251	-0.240740	9.862526	-0.185207	-0.007498	-0.003180	-0.003664	91.209221	0.854879	13.161896
20887	8738276	-0.221267	9.871817	-0.187726	-0.004067	-0.000015	-0.002056			
20888	8738301	-0.250921	9.869751	-0.170281	-0.006601	-0.002779	-0.000586			
20889	8738326	-0.245658	9.871808	-0.176966	-0.007474	-0.001435	-0.000578			
20890	8738351	-0.238025	9.873983	-0.188100	-0.008214	-0.000547	-0.003587	91.208130	0.854825	13.161498
20891	8738376	-0.225826	9.877631	-0.168949	-0.004365	0.000744	-0.006856			
20892	8738401	-0.211625	9.860545	-0.187776	-0.003512	0.000444	-0.002375			
20893	8738426	-0.199308	9.869196	-0.184997	-0.002597	0.000274	0.000891			
20894	8738451	-0.209759	9.860948	-0.181024	-0.005825	-0.001010	-0.000396	91.208466	0.855029	13.161837
20895	8738476	-0.229962	9.877154	-0.171861	-0.004117	-0.004274	0.003628			
20896	8738501	-0.203001	9.859784	-0.193065	-0.004828	-0.000483	-0.002888			
20897	8738526	-0.209929	9.860499	-0.152808	-0.002703	0.001626	0.000645			
20898	8738551	-0.215905	9.860192	-0.198768	-0.003304	0.004062	-0.004411	91.209038	0.854414	13.162232
20899	8738576	-0.214808	9.874781	-0.159469	-0.002758	-0.000894	-0.000906			
20900	8738601	-0.220510	9.882677	-0.184389	-0.003736	-0.002532	-0.001752			
20901	8738626	-0.251333	9.870338	-0.177988	-0.001612	0.001323	-0.001150			
20902	8738651	-0.239322	9.861856	-0.171861	-0.001349	0.001389	-0.000905	91.210358	0.854047	13.162425
20903	8738676	-0.217598	9.870172	-0.169985	-0.002295	0.002600	-0.002687			
20904	8738701	-0.211163	9.863043	-0.195414	-0.003345	-0.000978	-0.003926			
20905	8738726	-0.202628	9.861949	-0.179635	-0.007012	-0.001875	0.000697			
20906	8738751	-0.213669	9.861189	-0.169534	-0.003953	-0.006154	-0.002986	91.210686	0.854294	13.161781
20907	8738776	-0.215247	9.884824	-0.195932	0.001690	-0.000179	-0.005661			
20908	8738801	-0.227929	9.864128	-0.186658	-0.007510	0.001273	-0.004157			
20909	8738826	-0.220724	9.869080	-0.194863	-0.008030	-0.002025	0.000446			
20910	8738851	-0.202731	9.871057	-0.184930	-0.005060	0.001067	-0.001155	91.210655	0.854759	13.162093
20911	8738876	-0.215970	9.881775	-0.152283	-0.002541	-0.006263	-0.004660			
20912	8738901	-0.229871	9.871946	-0.172826	-0.003465	-0.002383	0.005367			
20913	8738926	-0.219292	9.848644	-0.160336	-0.006081	0.000849	-0.001729			
20914	8738951	-0.222934	9.869469	-0.160351	-0.007929	0.002426	-0.006591	91.210487	0.854817	13.161609
20915	8738976	-0.235899	9.853488	-0.180496	-0.001834	-0.001982	-0.002195			
20916	8739001	-0.201669	9.862104	-0.188344	-0.000980	-0.000750	-0.005662			
20917	8739026	-0.238615	9.867609	-0.144556	0.002088	-0.002033	0.002471			
20918	8739051	-0.214727	9.872796	-0.183851	-0.008199	0.000675	-0.006595	91.211891	0.855502	13.161332
20919	8739076	-0.228160	9.871769	-0.158926	-0.004445	-0.002417	-0.003801			
20920	8739101	-0.231323	9.867258	-0.176573	-0.007801	0.002562	-0.003569			
20921	8739126	-0.228818	9.868103	-0.199684	-0.002877	0.002649	-0.003262			
20922	8739151	-0.233850	9.882476	-0.181940	-0.002626	0.003244	0.000776	91.212051	0.855850	13.162485
20923	8739176	-0.197494	9.858818	-0.156152	-0.006287	-0.000827	-0.001931			
20924	8739201	-0.236134	9.877448	-0.195775	-0.005613	-0.002187	-0.007127			
20925	8739226	-0.240993	9.884941	-0.193826	-0.005689	0.002532	-0.004856			
20926	8739251	-0.242907	9.889163	-0.192395	-0.005193	0.001195	-0.001976	91.211479	0.857078	13.162896
20927	8739276	-0.233277	9.877656	-0.176121	-0.006247	0.000410	0.002569			
20928	8739301	-0.222017	9.885502	-0.184312	-0.007612	0.000496	-0.004423			
20929	8739326	-0.246096	9.897238	-0.164092	-0.007448	-0.000927	-0.006023			
20930	8739351	-0.219810	9.871511	-0.198308	-0.001089	0.000875	-0.001934	91.210983	0.857434	13.163315
20931	8739376	-0.230863	9.865342	-0.175705	-0.001763	-0.002304	-0.003935			
20932	8739401	-0.237347	9.863128	-0.191924	-0.006470	0.003238	-0.002030			
20933	8739426	-0.214355	9.859326	-0.203521	-0.006400	-0.003350	-0.000590			
20934	8739451	-0.232712	9.866881	-0.184790	-0.005631	-0.001343	-0.004239	91.210777	0.857944	13.163072
20935	8739476	-0.236101	9.865698	-0.171826	-0.001021	-0.001387	-0.003871			
20936	8739501	-0.225705	9.880233	-0.183953	0.001474	0.001121	-0.000526			
20937	8739526	-0.223531	9.855636	-0.186196	-0.008836	0.000405	-0.006589			
20938	8739551	-0.230586	9.852169	-0.182490	0.001881	0.000282	-0.000463	91.212540	0.858540	13.163432
20939	8739576	-0.232258	9.875102	-0.194802	-0.006734	0.003229	-0.001837			
20940	8739601	-0.251135	9.869872	-0.209158	-0.000836	0.003143	-0.001402			
20941	8739626	-0.245631	9.867902	-0.168892	-0.006831	-0.004007	-0.001875			
20942	8739651	-0.242668	9.904303	-0.189017	-0.006829	0.002386	-0.001973	91.212196	0.858496	13.164376
20943	8739676	-0.226784	9.874630	-0.158917	-0.004555	-0.003129	-0.003096			
20944	8739701	-0.221364	9.867127	-0.160405	-0.003563	0.002517	-0.000955			
20945	8739726	-0.228364	9.864077	-0.184313	-0.006281	-0.004965	-0.000922			
20946	8739751	-0.250806	9.873801	-0.186620	-0.000113	0.000699	0.000632	91.212799	0.858088	13.163951
20947	8739776	-0.238301	9.873700	-0.139265	-0.001821	0.003965	-0.001079			
20948	8739801	-0.237761	9.860003	-0.204396	-0.006784	0.000706	-0.004034			
20949	8739826	-0.247377	9.863975	-0.192342	-0.007276	-0.001949	-0.003336			
20950	8739851	-0.240317	9.861903	-0.175678	-0.000377	-0.005774	-0.002670	91.213142	0.858645	13.163809
20951	8739876	-0.234230	9.868979	-0.167577	0.000216	-0.002007	-0.001255			
20952	8739901	-0.197731	9.842268	-0.159970	-0.007166	0.000836	-0.001414			
20953	8739926	-0.215877	9.849215	-0.164161	-0.011039	0.002059	0.001879			
20954	8739951	-0.213844	9.874823	-0.161408	-0.003941	0.000180	0.000699	91.212700	0.857611	13.164256
20955	8739976	-0.229533	9.879269	-0.185738	-0.004217	0.000626	-0.001028			
20956	8740001	-0.225601	9.896506	-0.161751	-0.009188	0.004090	-0.001642			
20957	8740026	-0.225372	9.869070	-0.135445	-0.005150	0.001971	-0.001022			
20958	8740051	-0.225361	9.854505	-0.176662	-0.003155	-0.000121	0.003067	91.212303	0.856637	13.165456
20959	8740076	-0.212105	9.872036	-0.132696	0.000225	-0.002207	-0.002468			
20960	8740101	-0.221258	9.865565	-0.182384	-0.007974	-0.000151	-0.002627			
20961	8740126	-0.243054	9.858106	-0.178445	-0.007838	0.004251	0.001435			
20962	8740151	-0.233823	9.872834	-0.171387	-0.003628	0.000179	-0.003858	91.212250	0.856662	13.166044
20963	8740176	-0.235633	9.873568	-0.189559	-0.002646	-0.002773	-0.004199			
20964	8740201	-0.241460	9.889867	-0.205804	-0.008045	-0.004160	-0.004314			
20965	8740226	-0.215336	9.838968	-0.176335	0.003263	-0.003779	-0.008258			
20966	8740251	-0.226945	9.879202	-0.210262	-0.000177	-0.001627	0.000034	91.213829	0.858052	13.164583
20967	8740276	-0.208572	9.858507	-0.206547	0.001833	0.002095	0.002484			
20968	8740301	-0.246148	9.875109	-0.175583	-0.004004	-0.004147	-0.000095			
20969	8740326	-0.221786	9.877216	-0.200686	-0.003913	-0.003186	-0.003681			
20970	8740351	-0.216091	9.865446	-0.170491	-0.005525	-0.004758	-0.002339	91.214836	0.857555	13.163415
20971	8740376	-0.220804	9.880697	-0.209759	-0.004102	-0.003316	-0.003746			
20972	8740401	-0.232393	9.889920	-0.202502	-0.006774	0.002517	-0.002235			
20973	8740426	-0.219126	9.876147	-0.158943	-0.007747	0.003283	-0.000818			
20974	8740451	-0.220902	9.876349	-0.173821	-0.004587	0.002632	0.001355	91.214226	0.857276	13.164432
20975	8740476	-0.248389	9.867702	-0.189061	-0.001097	-0.002941	-0.001827			
20976	8740501	-0.234481	9.839885	-0.220214	-0.007938	-0.005250	0.000742			
20977	8740526	-0.232088	9.861249	-0.188616	-0.004166	-0.003183	-0.002079			
20978	8740551	-0.216693	9.873944	-0.168541	-0.005388	-0.003082	-0.004320	91.214226	0.857345	13.162631
20979	8740576	-0.249905	9.875715	-0.186657	-0.003289	-0.004590	-0.001633			
20980	8740601	-0.210607	9.855308	-0.185865	-0.002950	0.001037	-0.000012			
20981	8740626	-0.229463	9.840949	-0.192890	-0.007106	-0.001168	-0.003025			
20982	8740651	-0.210891	9.849985	-0.209818	-0.005452	0.001054	-0.002375	91.214203	0.857323	13.162405
20983	8740676	-0.223013	9.865840	-0.202071	-0.002636	-0.002706	0.000928			
20984	8740701	-0.216349	9.862454	-0.192547	-0.004369	0.001730	0.001089			
20985	8740726	-0.218624	9.863766	-0.218426	-0.001495	-0.000364	-0.000013			
20986	8740751	-0.223327	9.873957	-0.174279	-0.005394	-0.004955	-0.004265	91.214912	0.856620	13.161790
20987	8740776	-0.227090	9.879329	-0.187649	-0.007473	0.002511	-0.001848			
20988	8740801	-0.221732	9.871835	-0.189710	0.001375	0.004289	0.001018			
20989	8740826	-0.232906	9.890347	-0.199172	-0.004104	0.005148	-0.001843			
20990	8740851	-0.204257	9.854409	-0.214590	-0.007781	0.004052	-0.002159	91.215065	0.856218	13.164355
20991	8740876	-0.196330	9.850690	-0.182480	-0.010559	-0.003691	-0.003992			
20992	8740901	-0.220783	9.858784	-0.173307	-0.008704	0.000803	-0.002494			
20993	8740926	-0.224745	9.878095	-0.166665	0.001802	0.003392	0.005251			
20994	8740951	-0.217844	9.858419	-0.177666	-0.005166	-0.001907	-0.003162	91.214516	0.855808	13.164435
20995	8740976	-0.238061	9.879139	-0.184241	-0.007083	-0.001812	-0.000457			
20996	8741001	-0.248291	9.852748	-0.173246	-0.001314	0.002037	-0.002059			
20997	8741026	-0.218875	9.869486	-0.188720	-0.002165	-0.001605	-0.003615			
20998	8741051	-0.210327	9.838960	-0.202071	-0.008380	-0.005846	-0.003749	91.214470	0.856203	13.163689
20999	8741076	-0.243760	9.872884	-0.182796	-0.005320	0.000924	-0.004877			
21000	8741101	-0.235947	9.858290	-0.183859	-0.001456	0.004286	-0.004739			
21001	8741126	-0.195322	9.840035	-0.167262	-0.002454	0.001428	-0.004055			
21002	8741151	-0.207599	9.876945	-0.170974	-0.005621	-0.001331	0.001398	91.215065	0.856898	13.164764
21003	8741176	-0.225086	9.871371	-0.193420	-0.007169	0.000960	-0.001988			
21004	8741201	-0.229036	9.838067	-0.189599	-0.004992	0.000210	-0.007956			
21005	8741226	-0.217375	9.870558	-0.195797	-0.007193	-0.000198	0.002050			
21006	8741251	-0.248666	9.924986	-0.180860	-0.005403	-0.002237	-0.001682	91.214211	0.857231	13.164870
21007	8741276	-0.239968	9.877597	-0.178023	-0.005282	0.002362	0.002123			
21008	8741301	-0.254432	9.898916	-0.187555	-0.003886	-0.003752	0.001833			
21009	8741326	-0.244479	9.874289	-0.151642	-0.004719	-0.002106	-0.005722			
21010	8741351	-0.224378	9.885372	-0.177127	-0.006750	-0.000258	-0.001542	91.213936	0.856671	13.164607
21011	8741376	-0.219555	9.847140	-0.186307	-0.003064	-0.001483	-0.001945			
21012	8741401	-0.218001	9.832886	-0.183366	-0.009228	-0.003083	-0.003926			
21013	8741426	-0.234963	9.873398	-0.209720	-0.002357	-0.001277	0.000432			
21014	8741451	-0.250281	9.857837	-0.165958	-0.005697	-0.003208	-0.000215	91.213699	0.856463	13.163604
21015	8741476	-0.235021	9.894771	-0.179942	-0.007167	0.000371	-0.006281			
21016	8741501	-0.211549	9.849450	-0.175765	-0.005902	-0.000826	-0.000973			
21017	8741526	-0.236614	9.875220	-0.175606	-0.009236	-0.000228	0.002120			
21018	8741551	-0.225837	9.888707	-0.179983	-0.009131	0.000344	-0.000055	91.211876	0.856164	13.163849
21019	8741576	-0.250671	9.877995	-0.212516	-0.003242	-0.003545	0.003050			
21020	8741601	-0.228523	9.863194	-0.157956	-0.003195	-0.001167	-0.000404			
21021	8741626	-0.222717	9.862152	-0.177659	-0.005005	-0.001077	-0.006939			
21022	8741651	-0.224458	9.886199	-0.169013	-0.001930	-0.002955	-0.001831	91.212646	0.856020	13.162895
21023	8741676	-0.253395	9.875387	-0.167899	-0.005962	-0.005223	-0.004391			
21024	8741701	-0.234484	9.867401	-0.189054	-0.008214	0.000180	0.004622			
21025	8741726	-0.221834	9.836498	-0.174754	-0.004900	0.000300	0.001793			
21026	8741751	-0.226943	9.860225	-0.179005	-0.007780	0.002049	-0.002879	91.211479	0.855107	13.162773
21027	8741776	-0.252261	9.873232	-0.181289	-0.006379	-0.003928	-0.000280			
21028	8741801	-0.218985	9.840584	-0.191592	-0.003594	-0.003050	-0.002016			
21029	8741826	-0.229643	9.893616	-0.192931	-0.005169	-0.001587	-0.002326			
21030	8741851	-0.227946	9.866359	-0.178096	-0.004931	-0.000937	-0.000466	91.211296	0.854820	13.161688
21031	8741876	-0.239932	9.875798	-0.184750	-0.004835	-0.000158	-0.001417			
21032	8741901	-0.239510	9.879589	-0.183776	-0.004362	0.005537	-0.001326			
21033	8741926	-0.249553	9.877457	-0.177055	-0.003189	0.000712	0.000696			
21034	8741951	-0.235927	9.868797	-0.188622	-0.004187	-0.002074	0.003444	91.211617	0.853564	13.162509
21035	8741976	-0.230374	9.875490	-0.187674	-0.003064	0.000846	-0.000332			
21036	8742001	-0.236947	9.847466	-0.159328	-0.005220	0.003764	-0.006847			
21037	8742026	-0.210129	9.852240	-0.171460	-0.002845	0.000143	0.003451			
21038	8742051	-0.208453	9.865996	-0.169531	-0.006126	-0.001664	0.000623	91.211838	0.852956	13.163205
21039	8742076	-0.210639	9.851403	-0.178601	-0.007917	0.000107	-0.002249			
21040	8742101	-0.209287	9.856576	-0.174318	-0.007349	0.000244	-0.004494			
21041	8742126	-0.214356	9.877661	-0.160841	-0.007333	0.000127	-0.000003			
21042	8742151	-0.218711	9.857635	-0.189593	-0.008121	0.000815	0.000328	91.210129	0.852825	13.163662
21043	8742176	-0.247062	9.865511	-0.168417	-0.005180	0.000675	-0.001474			
21044	8742201	-0.252075	9.847461	-0.171251	-0.004239	-0.002998	-0.004834			
21045	8742226	-0.264014	9.869962	-0.194692	-0.004053	-0.002202	0.003636			
21046	8742251	-0.236747	9.875546	-0.165120	-0.004268	0.002302	-0.004295	91.210304	0.852786	13.163644
21047	8742276	-0.226975	9.867772	-0.176657	-0.003672	0.004135	0.003791			
21048	8742301	-0.259041	9.886095	-0.190361	-0.006963	0.000717	0.000517			
21049	8742326	-0.230558	9.895486	-0.192420	-0.009152	-0.002882	0.001913			
21050	8742351	-0.213533	9.889123	-0.165704	-0.003523	0.001292	0.002170	91.209648	0.850532	13.164333
21051	8742376	-0.231436	9.874803	-0.174199	-0.006753	-0.002457	-0.004183			
21052	8742401	-0.205834	9.852634	-0.193083	-0.004119	-0.000802	-0.004895			
21053	8742426	-0.172157	9.857437	-0.169232	-0.006150	-0.001024	-0.001231			
21054	8742451	-0.233635	9.866815	-0.180898	-0.008355	0.002171	-0.000374	91.208725	0.851021	13.164322
21055	8742476	-0.244226	9.856667	-0.146804	-0.005461	0.001575	-0.000574			
21056	8742501	-0.210081	9.828691	-0.213165	-0.007519	0.001930	0.000259			
21057	8742526	-0.225822	9.843027	-0.170429	-0.003886	0.002314	-0.002629			
21058	8742551	-0.232875	9.873289	-0.169894	-0.005537	0.003894	-0.004409	91.208214	0.851002	13.165998
21059	8742576	-0.222058	9.851733	-0.179017	-0.009179	-0.000498	-0.001472			
21060	8742601	-0.228116	9.852997	-0.204400	-0.009321	0.002021	-0.002360			
21061	8742626	-0.226442	9.861779	-0.187261	-0.000185	-0.001240	-0.001116			
21062	8742651	-0.228989	9.875007	-0.185224	-0.005746	0.002410	-0.002941	91.207405	0.851081	13.166666
21063	8742676	-0.231283	9.872666	-0.189553	-0.004929	0.001006	-0.000001			
21064	8742701	-0.217514	9.884384	-0.200219	-0.005157	-0.004035	0.000869			
21065	8742726	-0.206380	9.857223	-0.183451	-0.005847	0.001629	-0.000452			
21066	8742751	-0.229515	9.886124	-0.199619	-0.006202	0.002527	-0.003259	91.206955	0.850439	13.167085
21067	8742776	-0.214598	9.870121	-0.195434	-0.001387	0.001967	-0.005008			
21068	8742801	-0.232917	9.879086	-0.176207	-0.002064	0.001107	-0.004824			
21069	8742826	-0.231266	9.867865	-0.185753	-0.003223	-0.004850	-0.003310			
21070	8742851	-0.224329	9.852473	-0.197722	-0.007710	0.001922	-0.000061	91.207573	0.851285	13.167406
21071	8742876	-0.219563	9.844780	-0.187255	-0.003505	-0.004019	-0.002980			
21072	8742901	-0.243481	9.862715	-0.200583	-0.000903	-0.000931	-0.000794			
21073	8742926	-0.220019	9.874763	-0.162791	-0.004627	-0.000472	0.000243			
21074	8742951	-0.207760	9.840239	-0.159473	-0.005029	-0.002170	-0.002460	91.208244	0.851125	13.166592
21075	8742976	-0.213495	9.846915	-0.166639	-0.006638	-0.001808	-0.002262			
21076	8743001	-0.257779	9.883239	-0.158316	-0.002371	-0.000882	-0.000019			
21077	8743026	-0.217735	9.883574	-0.178197	-0.001277	-0.001591	-0.004770			
21078	8743051	-0.242211	9.897882	-0.171810	-0.002840	-0.002386	-0.002204	91.209053	0.851425	13.165923
21079	8743076	-0.223146	9.863517	-0.174237	-0.006513	0.000595	0.000063			
21080	8743101	-0.231914	9.867867	-0.155034	-0.005880	-0.003469	-0.001819			
21081	8743126	-0.215232	9.872476	-0.164715	-0.005583	-0.002432	0.001003			
21082	8743151	-0.207519	9.833604	-0.191139	-0.005434	0.002339	-0.004613	91.208397	0.851160	13.165776
21083	8743176	-0.246701	9.879314	-0.171727	-0.005189	0.005199	-0.003117			
21084	8743201	-0.216936	9.857877	-0.172390	-0.005794	0.002021	-0.001666			
21085	8743226	-0.224736	9.872935	-0.170387	-0.009333	-0.001529	-0.001286			
21086	8743251	-0.231410	9.868381	-0.157458	-0.006714	-0.001025	0.000954	91.207207	0.850839	13.166708
21087	8743276	-0.209260	9.854748	-0.178619	-0.007439	0.001213	-0.003655			
21088	8743301	-0.220560	9.836345	-0.163773	-0.003183	-0.004275	-0.004715			
21089	8743326	-0.250069	9.849611	-0.186569	-0.007907	-0.002021	-0.000845			
21090	8743351	-0.254798	9.883091	-0.176990	-0.003594	-0.000586	0.002168	91.206718	0.850821	13.166172
21091	8743376	-0.238974	9.876789	-0.186699	-0.001796	0.003260	0.000383			
21092	8743401	-0.223980	9.865983	-0.212639	-0.005366	0.000341	-0.003789			
21093	8743426	-0.242045	9.853001	-0.184249	-0.004940	0.003327	-0.002809			
21094	8743451	-0.236914	9.885385	-0.157411	-0.007151	-0.001818	-0.002512	91.206696	0.851008	13.167199
21095	8743476	-0.242561	9.889353	-0.173283	-0.003615	-0.000139	-0.002895			
21096	8743501	-0.229519	9.874346	-0.173229	-0.007431	-0.003116	-0.002329			
21097	8743526	-0.227879	9.868437	-0.189624	-0.002383	-0.004959	-0.001772			
21098	8743551	-0.209650	9.894673	-0.184393	-0.007282	0.003037	0.002964	91.206375	0.850559	13.166736
21099	8743576	-0.213819	9.880201	-0.171890	-0.007431	0.001417	0.003400			
21100	8743601	-0.239416	9.871560	-0.186178	-0.005092	-0.004432	-0.004326			
21101	8743626	-0.226633	9.862905	-0.168036	-0.005676	0.001751	-0.007950			
21102	8743651	-0.231003	9.880425	-0.169478	-0.003657	-0.000845	-0.001171	91.205940	0.850961	13.166744
21103	8743676	-0.234227	9.890427	-0.205407	-0.002323	0.001635	-0.000709			
21104	8743701	-0.230327	9.867854	-0.184292	-0.006066	0.002469	-0.001849			
21105	8743726	-0.211543	9.857786	-0.193033	-0.003690	-0.002013	-0.001435			
21106	8743751	-0.233067	9.851975	-0.172278	-0.007156	0.000447	-0.001732	91.205887	0.850729	13.167392
21107	8743776	-0.237773	9.884785	-0.180913	-0.005540	0.001496	-0.007690			
21108	8743801	-0.234084	9.890153	-0.156993	-0.003162	-0.008398	0.000650			
21109	8743826	-0.239053	9.876646	-0.177056	-0.005049	0.000608	-0.003727			
21110	8743851	-0.230686	9.887547	-0.169018	-0.003950	-0.001763	-0.003032	91.206024	0.851687	13.166543
21111	8743876	-0.226165	9.875239	-0.168064	-0.005212	-0.000225	0.000443			
21112	8743901	-0.249585	9.887582	-0.187136	-0.000295	0.004447	-0.001141			
21113	8743926	-0.231279	9.861382	-0.165632	-0.002795	0.000396	0.000435			
21114	8743951	-0.223499	9.889512	-0.168022	-0.006022	0.003509	0.002387	91.206680	0.850315	13.167964
21115	8743976	-0.255539	9.870048	-0.192790	-0.005576	-0.001143	-0.002000			
21116	8744001	-0.246517	9.860948	-0.179924	-0.003323	0.000440	-0.006230			
21117	8744026	-0.231292	9.865795	-0.175198	-0.004178	-0.002928	-0.004129			
21118	8744051	-0.225278	9.868908	-0.156558	-0.003818	-0.001894	-0.002460	91.206955	0.851410	13.167500
21119	8744076	-0.211040	9.847039	-0.172437	-0.002293	-0.003798	-0.001767			
21120	8744101	-0.229071	9.847561	-0.191008	-0.006042	-0.002381	-0.000851			
21121	8744126	-0.206500	9.865292	-0.183445	-0.005646	0.003247	-0.004157			
21122	8744151	-0.201836	9.875820	-0.186410	-0.001457	0.004485	-0.003074	91.207420	0.851776	13.167993
21123	8744176	-0.209653	9.854017	-0.194076	-0.000930	0.003909	-0.003208			
21124	8744201	-0.226892	9.841495	-0.226029	-0.003032	-0.000584	-0.004128			
21125	8744226	-0.218259	9.846349	-0.164712	-0.003333	-0.000973	-0.000919			
21126	8744251	-0.231512	9.884360	-0.178966	-0.008824	0.000478	-0.002235	91.207825	0.852227	13.168699
21127	8744276	-0.218132	9.867072	-0.154180	-0.005309	0.000539	-0.003013			
21128	8744301	-0.237989	9.859427	-0.167087	0.000094	0.001594	-0.006042			
21129	8744326	-0.231038	9.879907	-0.166134	-0.002009	-0.000238	-0.000915			
21130	8744351	-0.225254	9.883608	-0.186698	-0.005402	0.001836	-0.001794	91.208725	0.852857	13.169519
21131	8744376	-0.231285	9.868225	-0.178559	-0.006178	-0.001863	0.000243			
21132	8744401	-0.253309	9.877990	-0.183330	0.000976	0.006655	-0.002812			
21133	8744426	-0.227794	9.883303	-0.168479	-0.007418	-0.001699	-0.006104			
21134	8744451	-0.202640	9.850653	-0.153317	-0.000639	-0.000986	0.001641	91.209526	0.852815	13.170095
21135	8744476	-0.241305	9.892416	-0.154575	-0.002237	-0.003345	-0.002919			
21136	8744501	-0.213290	9.843495	-0.191082	-0.004996	-0.001131	-0.000975			
21137	8744526	-0.225855	9.847808	-0.172847	-0.003676	0.001669	-0.002249			
21138	8744551	-0.222506	9.878538	-0.162773	-0.005375	0.000536	-0.004426	91.209862	0.853294	13.170049
21139	8744576	-0.229269	9.895757	-0.178062	-0.006652	-0.005363	-0.000867			
21140	8744601	-0.220918	9.881832	-0.191023	-0.007577	-0.002532	-0.001360			
21141	8744626	-0.237277	9.881777	-0.169374	-0.007024	0.004384	-0.004530			
21142	8744651	-0.218840	9.860648	-0.169505	-0.003560	0.000259	0.001140	91.209000	0.853065	13.169874
21143	8744676	-0.248053	9.896917	-0.144384	-0.009035	0.001386	-0.001785			
21144	8744701	-0.220174	9.852237	-0.178151	-0.003408	-0.000718	-0.003161			
21145	8744726	-0.220871	9.868784	-0.175217	-0.006491	-0.006849	-0.003503			
21146	8744751	-0.220890	9.874996	-0.179062	-0.006995	-0.004525	0.000294	91.207939	0.853222	13.168621
21147	8744776	-0.243334	9.882998	-0.192414	-0.004070	-0.004217	-0.002722			
21148	8744801	-0.205792	9.845831	-0.181979	-0.007485	-0.001505	-0.004116			
21149	8744826	-0.231299	9.864874	-0.176144	-0.006768	0.000384	-0.003020			
21150	8744851	-0.221999	9.893270	-0.194905	-0.004639	-0.000417	-0.002699	91.207321	0.853996	13.168088
21151	8744876	-0.227098	9.873194	-0.189586	-0.006093	-0.005297	-0.005870			
21152	8744901	-0.241865	9.880137	-0.190014	-0.004542	-0.001320	-0.003415			
21153	8744926	-0.238281	9.863626	-0.193425	-0.000285	-0.004408	-0.000365			
21154	8744951	-0.235484	9.893725	-0.174258	-0.000101	-0.000206	-0.003292	91.208427	0.854840	13.166800
21155	8744976	-0.229265	9.872927	-0.204929	-0.002977	-0.002193	-0.000024			
21156	8745001	-0.246724	9.852139	-0.193745	-0.007972	-0.000146	-0.001799			
21157	8745026	-0.241307	9.870985	-0.181389	-0.005557	0.000542	-0.000638			
21158	8745051	-0.201684	9.899899	-0.178219	-0.005744	0.000539	-0.000004	91.207924	0.854153	13.166877
21159	8745076	-0.231716	9.877486	-0.194402	-0.000572	-0.003119	0.002851			
21160	8745101	-0.247630	9.893696	-0.213382	-0.011697	0.000364	-0.001788			
21161	8745126	-0.214711	9.875640	-0.184377	-0.009158	0.003123	-0.002612			
21162	8745151	-0.211852	9.872725	-0.177193	-0.005454	-0.004888	-0.002277	91.206734	0.853673	13.166503
21163	8745176	-0.230882	9.871584	-0.180965	-0.002913	-0.000067	-0.002328			
21164	8745201	-0.232664	9.854263	-0.166536	-0.005110	0.002550	-0.001854			
21165	8745226	-0.286493	9.903242	-0.185935	-0.005580	-0.000818	-0.002055			
21166	8745251	-0.236256	9.878352	-0.162672	-0.006345	0.001439	0.000902	91.206596	0.853383	13.167232
21167	8745276	-0.242302	9.870082	-0.184219	-0.006312	-0.000192	-0.004488			
21168	8745301	-0.233170	9.877909	-0.192977	0.000323	-0.001100	0.000870			
21169	8745326	-0.218946	9.880622	-0.204014	-0.006230	-0.002515	-0.002135			
21170	8745351	-0.240005	9.872230	-0.168390	-0.008374	-0.001517	-0.003150	91.206306	0.853632	13.166731
21171	8745376	-0.224540	9.881170	-0.150289	-0.007164	0.000507	-0.003780			
21172	8745401	-0.251882	9.873075	-0.170840	-0.000909	-0.000542	-0.000916			
21173	8745426	-0.228821	9.864572	-0.185249	-0.005817	-0.003532	-0.000601			
21174	8745451	-0.225620	9.890674	-0.152271	-0.002360	-0.003745	-0.005677	91.206642	0.854185	13.165985
21175	8745476	-0.233388	9.872622	-0.157455	-0.004175	-0.000660	-0.000973			
21176	8745501	-0.226111	9.863769	-0.161888	0.000148	-0.004083	-0.003117			
21177	8745526	-0.220542	9.878330	-0.179053	-0.005952	-0.001676	-0.006942			
21178	8745551	-0.210468	9.880559	-0.192576	-0.004131	-0.000283	-0.005725	91.207291	0.855564	13.165363
21179	8745576	-0.245149	9.872855	-0.182349	-0.004540	-0.001188	-0.000972			
21180	8745601	-0.231706	9.862020	-0.176591	-0.007418	-0.003242	-0.000146			
21181	8745626	-0.218776	9.853202	-0.178586	-0.006981	-0.003368	-0.004897			
21182	8745651	-0.225415	9.840323	-0.148373	-0.004497	0.003663	-0.000376	91.206619	0.855448	13.165054
21183	8745676	-0.233829	9.852346	-0.197234	-0.005275	0.001779	-0.000769			
21184	8745701	-0.218318	9.850177	-0.166558	-0.009845	0.004597	-0.002407			
21185	8745726	-0.230935	9.860687	-0.150745	-0.004342	-0.001836	-0.004441			
21186	8745751	-0.223037	9.857006	-0.182882	-0.006637	0.000197	-0.001539	91.205582	0.855702	13.166029
21187	8745776	-0.234406	9.858454	-0.193311	-0.011504	-0.001825	-0.000903			
21188	8745801	-0.225071	9.870245	-0.181841	-0.011726	-0.006734	0.001639			
21189	8745826	-0.217964	9.896067	-0.157520	-0.005850	-0.002313	-0.001237			
21190	8745851	-0.241997	9.880241	-0.166498	-0.007968	-0.002025	-0.000523	91.202950	0.854845	13.164444
21191	8745876	-0.223488	9.847771	-0.169042	-0.001514	-0.001973	-0.002143			
21192	8745901	-0.232913	9.877552	-0.169483	-0.001958	-0.003789	0.000224			
21193	8745926	-0.242902	9.876512	-0.171321	-0.002536	-0.006324	-0.004284			
21194	8745951	-0.227467	9.873549	-0.182403	-0.003581	-0.001097	0.002293	91.204193	0.854406	13.162823
21195	8745976	-0.230526	9.877799	-0.183384	-0.002950	-0.001304	-0.005981			
21196	8746001	-0.220221	9.869676	-0.202544	-0.007917	0.000243	-0.001222			
21197	8746026	-0.219875	9.861734	-0.178652	-0.002408	-0.002393	-0.007914			
21198	8746051	-0.223732	9.839659	-0.196813	-0.003473	0.001022	-0.004619	91.204491	0.856196	13.162798
21199	8746076	-0.237546	9.885186	-0.206370	-0.003107	-0.000069	-0.002065			
21200	8746101	-0.240347	9.867727	-0.184240	-0.007205	0.001928	-0.003777			
21201	8746126	-0.240721	9.891808	-0.176524	-0.008972	0.000724	-0.008261			
21202	8746151	-0.226915	9.864494	-0.179544	-0.004932	-0.000928	0.001721	91.203705	0.856923	13.163342
21203	8746176	-0.219934	9.876114	-0.188634	-0.007764	-0.002800	-0.004250			
21204	8746201	-0.201435	9.832716	-0.159532	-0.002812	-0.003740	-0.002150			
21205	8746226	-0.197472	9.863402	-0.176768	-0.006628	0.001806	-0.003970			
21206	8746251	-0.220703	9.851962	-0.161378	-0.003418	-0.002392	-0.001374	91.203415	0.857586	13.162631
21207	8746276	-0.247088	9.872736	-0.176129	-0.002527	0.000077	-0.000842			
21208	8746301	-0.234518	9.861161	-0.184197	-0.008012	0.003277	-0.001648			
21209	8746326	-0.211434	9.849215	-0.191527	-0.011522	-0.005122	0.001132			
21210	8746351	-0.207656	9.877610	-0.183436	-0.006120	-0.002387	-0.006430	91.202072	0.857669	13.162333
21211	8746376	-0.196394	9.851456	-0.170012	-0.008400	-0.001007	-0.004947			
21212	8746401	-0.205107	9.857349	-0.159598	-0.000139	-0.003056	-0.002666			
21213	8746426	-0.220762	9.856768	-0.165673	-0.003995	-0.002344	-0.000605			
21214	8746451	-0.242406	9.887697	-0.189038	-0.004059	0.001931	-0.000256	91.202362	0.857856	13.162004
21215	8746476	-0.208142	9.817037	-0.193959	-0.006843	0.000715	0.001091			
21216	8746501	-0.213850	9.840977	-0.181973	-0.004859	0.000545	-0.003664			
21217	8746526	-0.205051	9.865864	-0.188730	-0.006115	-0.000381	-0.004302			
21218	8746551	-0.214209	9.869308	-0.173446	-0.000823	-0.001512	-0.000288	91.202370	0.857843	13.162211
21219	8746576	-0.227751	9.852619	-0.179544	-0.003400	-0.004719	0.000989			
21220	8746601	-0.228005	9.875525	-0.187650	-0.006889	0.000256	-0.001930			
21221	8746626	-0.238605	9.876144	-0.174658	-0.007154	0.004448	-0.004016			
21222	8746651	-0.224084	9.846583	-0.153227	-0.001226	0.002931	-0.005645	91.202400	0.858309	13.162912
21223	8746676	-0.254631	9.859617	-0.161633	-0.005671	0.000151	-0.002185			
21224	8746701	-0.225230	9.837037	-0.181941	-0.005451	0.000793	-0.004230			
21225	8746726	-0.212299	9.861477	-0.155625	-0.005899	-0.000951	-0.002126			
21226	8746751	-0.220383	9.871697	-0.179153	0.000128	0.003161	-0.000076	91.202660	0.858494	13.163670
21227	8746776	-0.214815	9.846579	-0.176797	0.002119	-0.001328	0.000283			
21228	8746801	-0.229748	9.854499	-0.178959	-0.009610	0.000978	-0.002751			
21229	8746826	-0.251210	9.898308	-0.176018	-0.005445	-0.005205	-0.001122			
21230	8746851	-0.215937	9.860004	-0.186749	-0.005548	0.002217	-0.003009	91.202682	0.858406	13.163472
21231	8746876	-0.218634	9.885077	-0.183929	0.000221	0.001995	-0.003597			
21232	8746901	-0.224102	9.857813	-0.174313	-0.000829	0.002556	-0.005133			
21233	8746926	-0.234936	9.884104	-0.165089	-0.005773	0.003508	0.000718			
21234	8746951	-0.219142	9.854120	-0.177131	-0.005622	-0.001003	0.004157	91.203667	0.857897	13.164735
21235	8746976	-0.236402	9.829715	-0.208671	-0.008622	-0.001912	-0.003025			
21236	8747001	-0.231752	9.860574	-0.174273	-0.001846	-0.001991	-0.006120			
21237	8747026	-0.203499	9.860708	-0.192131	-0.004275	-0.001442	-0.000086			
21238	8747051	-0.225517	9.867567	-0.192488	-0.002530	-0.004385	-0.003181	91.203857	0.858661	13.163635
21239	8747076	-0.237155	9.886287	-0.185684	-0.006615	-0.000054	0.003135			
21240	8747101	-0.220700	9.857183	-0.192005	-0.006548	0.000963	-0.007117			
21241	8747126	-0.226002	9.867369	-0.180953	-0.005554	-0.001521	0.001523			
21242	8747151	-0.219167	9.848351	-0.172901	-0.002924	0.000265	0.000690	91.203445	0.857870	13.163866
21243	8747176	-0.220168	9.862036	-0.199216	-0.004381	-0.000219	-0.001943			
21244	8747201	-0.232874	9.842618	-0.179979	-0.002606	0.002469	-0.001219			
21245	8747226	-0.233514	9.854017	-0.181964	-0.000355	-0.000280	-0.003420			
21246	8747251	-0.219500	9.877051	-0.187672	-0.007787	0.004242	-0.003953	91.203987	0.858320	13.165058
21247	8747276	-0.207529	9.839293	-0.190622	-0.006770	0.000261	-0.001347			
21248	8747301	-0.245612	9.864642	-0.172708	-0.005358	-0.001721	-0.002582			
21249	8747326	-0.249436	9.872742	-0.177994	-0.003710	-0.001234	-0.000335			
21250	8747351	-0.218617	9.887454	-0.185348	-0.005397	-0.004432	0.000609	91.203598	0.857824	13.164312
21251	8747376	-0.228237	9.881310	-0.163302	-0.000556	-0.001897	-0.002077			
21252	8747401	-0.230977	9.890902	-0.202548	-0.002748	0.002851	-0.002117			
21253	8747426	-0.228970	9.878013	-0.195761	-0.008452	0.003006	-0.003128			
21254	8747451	-0.229095	9.885139	-0.196723	-0.007823	0.000876	-0.006725	91.203506	0.858778	13.165293
21255	8747476	-0.235971	9.891772	-0.170880	-0.005963	-0.003223	-0.006048			
21256	8747501	-0.218778	9.851658	-0.170451	-0.005022	-0.002557	-0.003803			
21257	8747526	-0.242306	9.870908	-0.177045	-0.006975	0.000964	-0.000316			
21258	8747551	-0.207510	9.855671	-0.145122	-0.004955	-0.000283	-0.000079	91.202873	0.859221	13.164856
21259	8747576	-0.210661	9.837151	-0.145602	-0.003657	0.001220	-0.002448			
21260	8747601	-0.214237	9.832634	-0.164256	-0.003971	-0.001107	-0.000463			
21261	8747626	-0.231321	9.872087	-0.182873	-0.005424	0.004548	-0.000368			
21262	8747651	-0.247144	9.873195	-0.175108	-0.005238	-0.001401	-0.001872	91.202934	0.858907	13.165601
21263	8747676	-0.213778	9.876985	-0.178640	-0.003186	0.000256	-0.002642			
21264	8747701	-0.235757	9.862015	-0.210151	-0.005682	0.000477	-0.001089			
21265	8747726	-0.211230	9.874980	-0.200660	-0.008149	-0.000280	0.000833			
21266	8747751	-0.221685	9.863605	-0.178596	-0.004250	-0.000142	0.000367	91.202591	0.858226	13.165911
21267	8747776	-0.216069	9.856778	-0.162811	-0.004807	0.000870	-0.002758			
21268	8747801	-0.189321	9.864640	-0.188838	-0.002508	0.000978	-0.003603			
21269	8747826	-0.243835	9.910105	-0.165611	-0.000736	-0.000224	-0.003289			
21270	8747851	-0.219756	9.891547	-0.174239	-0.009322	0.001885	-0.005819	91.202805	0.859389	13.166724
21271	8747876	-0.203838	9.845260	-0.174891	-0.003909	-0.000781	0.003059			
21272	8747901	-0.223685	9.861467	-0.164731	-0.001328	-0.001845	-0.002916			
21273	8747926	-0.248742	9.878586	-0.156485	0.000481	-0.002132	-0.001894			
21274	8747951	-0.211948	9.839019	-0.176278	0.000359	0.001480	-0.004633	91.204842	0.859271	13.166539
21275	8747976	-0.231953	9.839789	-0.180955	-0.003609	0.001407	-0.004683			
21276	8748001	-0.233543	9.894360	-0.182877	-0.004619	-0.001062	-0.003606			
21277	8748026	-0.240014	9.865843	-0.153547	-0.005800	-0.000049	-0.003788			
21278	8748051	-0.210208	9.883904	-0.162378	-0.004523	0.002168	-0.004165	91.204872	0.860548	13.167221
21279	8748076	-0.228360	9.859776	-0.181912	-0.004418	0.000879	-0.003278			
21280	8748101	-0.212796	9.872305	-0.181552	-0.002795	-0.000067	-0.003926			
21281	8748126	-0.202899	9.870672	-0.160049	-0.002687	-0.001423	-0.004257			
21282	8748151	-0.219555	9.871996	-0.167093	-0.007057	-0.003047	-0.005084	91.205101	0.861885	13.166996
21283	8748176	-0.218664	9.850950	-0.186786	-0.002818	0.000910	0.000054			
21284	8748201	-0.191090	9.861377	-0.194992	-0.010519	-0.002779	-0.002253			
21285	8748226	-0.201501	9.882635	-0.166134	-0.010699	-0.000384	0.004043			
21286	8748251	-0.233796	9.879192	-0.183786	-0.009334	-0.001532	-0.001545	91.203011	0.860814	13.166735
21287	8748276	-0.239861	9.870963	-0.178523	-0.006241	0.000085	0.002177			
21288	8748301	-0.224682	9.872596	-0.179577	-0.001658	-0.001520	-0.001501			
21289	8748326	-0.232117	9.861727	-0.189111	-0.002465	-0.002058	-0.001119			
21290	8748351	-0.221065	9.853365	-0.191052	-0.005773	0.001180	-0.002562	91.203369	0.860211	13.166671
21291	8748376	-0.216634	9.845055	-0.202084	-0.006188	-0.004391	-0.005993			
21292	8748401	-0.230830	9.870028	-0.172270	-0.010031	-0.003666	0.002293			
21293	8748426	-0.237036	9.858388	-0.159813	-0.004981	-0.001651	-0.002903			
21294	8748451	-0.203859	9.876825	-0.160480	-0.005294	0.000615	0.000513	91.202255	0.860063	13.165642
21295	8748476	-0.216347	9.829894	-0.141781	-0.001432	-0.002629	-0.004329			
21296	8748501	-0.203983	9.845680	-0.170527	-0.004262	0.003918	-0.004096			
21297	8748526	-0.211332	9.862870	-0.153780	-0.001481	0.001526	0.001013			
21298	8748551	-0.183401	9.863194	-0.213804	-0.001596	0.000547	-0.001618	91.203697	0.860305	13.166433
21299	8748576	-0.235639	9.881327	-0.201017	-0.008407	-0.000677	-0.003272			
21300	8748601	-0.243942	9.890806	-0.176088	-0.005922	0.002545	0.003666			
21301	8748626	-0.234295	9.869920	-0.167530	-0.000879	0.004438	-0.002046			
21302	8748651	-0.192292	9.857405	-0.152440	-0.002411	0.002204	-0.002764	91.203880	0.859870	13.167943
21303	8748676	-0.261575	9.892154	-0.185158	-0.001320	-0.001781	-0.000922			
21304	8748701	-0.227324	9.853485	-0.173749	-0.006419	-0.002511	0.000621			
21305	8748726	-0.209719	9.838581	-0.145618	-0.003406	-0.002851	-0.002143			
21306	8748751	-0.237954	9.860037	-0.175639	-0.002860	-0.008529	-0.006151	91.204498	0.860107	13.165981
21307	8748776	-0.235444	9.851545	-0.177103	-0.004144	0.000240	-0.003605			
21308	8748801	-0.231953	9.842642	-0.181378	-0.008193	0.000685	-0.002496			
21309	8748826	-0.236911	9.866540	-0.196749	-0.002557	-0.003745	-0.005035			
21310	8748851	-0.238085	9.887401	-0.197691	-0.005969	-0.002570	-0.000662	91.204163	0.860771	13.165489
21311	8748876	-0.232822	9.847112	-0.195318	-0.002821	0.005439	-0.000623			
21312	8748901	-0.221181	9.863830	-0.192982	-0.003657	0.000957	-0.003402			
21313	8748926	-0.226993	9.870827	-0.189622	-0.002632	0.001107	-0.002959			
21314	8748951	-0.209019	9.860394	-0.145076	-0.008398	0.005595	-0.000228	91.204399	0.860721	13.167662
21315	8748976	-0.239561	9.869748	-0.160763	-0.006665	0.000902	-0.004290			
21316	8749001	-0.232464	9.846764	-0.172770	-0.006963	-0.003360	0.001775			
21317	8749026	-0.222919	9.875621	-0.158938	-0.005479	0.000285	-0.001097			
21318	8749051	-0.196107	9.864342	-0.175385	-0.006051	-0.002518	-0.005347	91.203476	0.860975	13.167277
21319	8749076	-0.212824	9.870537	-0.159471	-0.004120	-0.002337	0.001001			
21320	8749101	-0.213079	9.859993	-0.183915	-0.004746	0.005335	-0.000751			
21321	8749126	-0.218212	9.855721	-0.187669	-0.007351	0.000705	-0.000702			
21322	8749151	-0.220305	9.860271	-0.176676	-0.006668	-0.001037	-0.004822	91.202881	0.860680	13.167933
21323	8749176	-0.243412	9.849607	-0.180916	-0.001290	-0.000739	-0.000660			
21324	8749201	-0.236547	9.854462	-0.151672	-0.003400	0.003228	-0.000060			
21325	8749226	-0.238158	9.882857	-0.178976	-0.005955	-0.001216	-0.002447			
21326	8749251	-0.229327	9.868004	-0.193431	-0.005503	0.000599	-0.003785	91.203247	0.860629	13.168508
21327	8749276	-0.224239	9.877978	-0.189635	-0.000632	0.000368	-0.003417			
21328	8749301	-0.206918	9.856703	-0.180486	-0.010960	-0.001182	-0.005576			
21329	8749326	-0.236263	9.884895	-0.186178	-0.006804	-0.002784	-0.003670			
21330	8749351	-0.245649	9.872540	-0.192868	-0.004014	-0.004356	-0.008367	91.202713	0.862622	13.167699
21331	8749376	-0.221375	9.888606	-0.200131	-0.008047	-0.001632	0.001340			
21332	8749401	-0.208633	9.857540	-0.205599	0.001231	-0.003806	-0.002290			
21333	8749426	-0.206799	9.857173	-0.180631	-0.001185	-0.001960	0.002918			
21334	8749451	-0.225257	9.882201	-0.187648	-0.006294	0.001298	-0.003843	91.203300	0.861868	13.167102
21335	8749476	-0.213996	9.858651	-0.189632	-0.007062	0.001480	-0.002818			
21336	8749501	-0.219376	9.848097	-0.217370	-0.007541	-0.001694	-0.001933			
21337	8749526	-0.217359	9.858038	-0.183390	-0.007054	-0.000913	-0.003088			
21338	8749551	-0.230612	9.879412	-0.165113	-0.007625	-0.000924	-0.002700	91.201813	0.862340	13.167104
21339	8749576	-0.214343	9.840499	-0.181991	-0.006066	-0.000195	-0.008407			
21340	8749601	-0.223134	9.834783	-0.187644	-0.007595	-0.001684	0.002551			
21341	8749626	-0.239283	9.889768	-0.165983	-0.010438	-0.002909	-0.000206			
21342	8749651	-0.211717	9.861286	-0.174378	-0.003007	0.003168	-0.000836	91.200638	0.862287	13.167156
21343	8749676	-0.214120	9.869577	-0.190599	-0.006147	-0.003417	-0.002205			
21344	8749701	-0.218799	9.858201	-0.164192	-0.007683	-0.005046	0.002407			
21345	8749726	-0.240891	9.866598	-0.173223	-0.006565	0.001940	-0.000955			
21346	8749751	-0.226676	9.881618	-0.181902	-0.006016	0.000988	-0.000957	91.199524	0.861508	13.166657
21347	8749776	-0.231874	9.880228	-0.188107	-0.006451	-0.001737	-0.001676			
21348	8749801	-0.235848	9.854124	-0.190980	-0.004306	-0.000870	-0.005016			
21349	8749826	-0.203795	9.877530	-0.175334	-0.006244	0.000203	0.000703			
21350	8749851	-0.218833	9.858793	-0.172325	-0.009081	-0.001201	0.001468	91.198425	0.861127	13.166401
21351	8749876	-0.226061	9.868218	-0.173820	-0.002874	0.000915	0.000769			
21352	8749901	-0.225053	9.873903	-0.204019	-0.002471	-0.000252	-0.002576			
21353	8749926	-0.222642	9.856874	-0.173385	0.000276	0.000387	-0.001235			
21354	8749951	-0.215407	9.864492	-0.200182	-0.005861	0.002018	-0.003003	91.199547	0.860940	13.167128
21355	8749976	-0.224511	9.851563	-0.169019	-0.004053	0.003792	-0.002176			
21356	8750001	-0.246849	9.858944	-0.173709	-0.000764	-0.003058	0.003110			
21357	8750026	-0.239036	9.874264	-0.176063	-0.008421	0.004171	-0.000231			
21358	8750051	-0.257045	9.874140	-0.182658	-0.009957	0.002211	-0.000039	91.198944	0.859782	13.168405
21359	8750076	-0.233568	9.866535	-0.193431	-0.001679	0.003515	-0.001347			
21360	8750101	-0.221471	9.874256	-0.161342	-0.002791	0.002141	-0.001152			
21361	8750126	-0.204605	9.857300	-0.155666	-0.006421	-0.000505	0.000247			
21362	8750151	-0.204631	9.865138	-0.172431	-0.006264	0.000788	-0.000831	91.199150	0.859164	13.169520
21363	8750176	-0.227576	9.877819	-0.182439	-0.002436	0.003245	-0.001469			
21364	8750201	-0.233638	9.874614	-0.194829	-0.004098	-0.000979	0.000048			
21365	8750226	-0.233099	9.893364	-0.179010	-0.006884	0.003934	-0.004530			
21366	8750251	-0.217186	9.877309	-0.171491	-0.000775	-0.003327	-0.004458	91.199806	0.859603	13.170230
21367	8750276	-0.238166	9.880436	-0.175667	-0.003166	0.001870	-0.003080			
21368	8750301	-0.246526	9.870501	-0.184724	-0.003254	0.000712	0.000440			
21369	8750326	-0.248687	9.875286	-0.157801	-0.007302	-0.001304	-0.003789			
21370	8750351	-0.239863	9.863347	-0.177066	-0.004293	-0.005129	-0.002150	91.199905	0.859802	13.169981
21371	8750376	-0.244543	9.858392	-0.166918	-0.008869	-0.001970	0.001597			
21372	8750401	-0.229426	9.876386	-0.183392	-0.003807	-0.002071	0.001906			
21373	8750426	-0.262415	9.886819	-0.178860	-0.005350	-0.001447	0.004160			
21374	8750451	-0.228320	9.867559	-0.194821	-0.008033	-0.002088	-0.000140	91.198830	0.857705	13.169129
21375	8750476	-0.222696	9.840112	-0.194865	-0.006320	0.000665	0.003076			
21376	8750501	-0.218997	9.844849	-0.192011	-0.004834	-0.000027	0.000566			
21377	8750526	-0.219856	9.856883	-0.172412	-0.003906	0.000361	-0.007442			
21378	8750551	-0.227878	9.864624	-0.188623	-0.006317	-0.001927	-0.001551	91.198456	0.857433	13.169276
21379	8750576	-0.207739	9.880656	-0.165728	-0.004464	0.000232	-0.002633			
21380	8750601	-0.227248	9.864359	-0.201579	-0.004667	-0.003248	0.002286			
21381	8750626	-0.218674	9.878142	-0.164711	-0.006697	-0.004135	-0.003164			
21382	8750651	-0.236188	9.867847	-0.157018	-0.001794	-0.003208	-0.001118	91.198586	0.857083	13.168071
21383	8750676	-0.223346	9.849230	-0.202112	-0.001538	0.000472	-0.007327			
21384	8750701	-0.221442	9.875971	-0.180535	-0.002430	-0.001219	-0.003551			
21385	8750726	-0.253406	9.889479	-0.190427	-0.005604	-0.004113	-0.001501			
21386	8750751	-0.227516	9.871737	-0.187727	-0.000438	0.002500	-0.002891	91.199829	0.858235	13.168049
21387	8750776	-0.222791	9.869638	-0.171375	-0.005461	0.005773	0.000091			
21388	8750801	-0.220571	9.849824	-0.176751	-0.001138	-0.003442	0.001827			
21389	8750826	-0.242945	9.876868	-0.164078	-0.008251	-0.001192	-0.001027			
21390	8750851	-0.248373	9.867695	-0.188487	-0.008298	0.002299	-0.002486	91.199203	0.857413	13.168824
21391	8750876	-0.241301	9.867993	-0.171802	-0.002715	-0.002053	0.001840			
21392	8750901	-0.227285	9.850084	-0.168415	-0.010271	-0.001861	0.003394			
21393	8750926	-0.223010	9.889947	-0.165656	-0.004037	0.001679	0.005063			
21394	8750951	-0.243351	9.877507	-0.174731	-0.000365	-0.004092	-0.003432	91.199402	0.855407	13.168170
21395	8750976	-0.220007	9.871395	-0.158924	-0.004134	0.002185	-0.001018			
21396	8751001	-0.205464	9.872253	-0.203619	-0.003266	0.001039	0.001147			
21397	8751026	-0.198462	9.862258	-0.164828	-0.005098	-0.003847	-0.001249			
21398	8751051	-0.203735	9.902920	-0.160447	-0.008088	0.001852	-0.001720	91.199120	0.854768	13.168603
21399	8751076	-0.218248	9.894186	-0.190103	-0.005777	-0.000826	-0.004305			
21400	8751101	-0.213601	9.857988	-0.177658	-0.007270	0.001729	-0.004223			
21401	8751126	-0.238701	9.889531	-0.181428	-0.001863	-0.007151	-0.001396			
21402	8751151	-0.210347	9.867035	-0.176209	-0.010152	0.000197	-0.000316	91.198196	0.855211	13.168031
21403	8751176	-0.218849	9.861385	-0.186253	-0.005284	-0.000437	-0.005268			
21404	8751201	-0.228623	9.879060	-0.170948	-0.001965	0.004674	-0.000952			
21405	8751226	-0.217423	9.874349	-0.195331	-0.008459	0.001335	0.001034			
21406	8751251	-0.261219	9.849604	-0.164002	-0.005652	0.003441	-0.002804	91.197853	0.855284	13.169611
21407	8751276	-0.241611	9.854235	-0.172316	-0.000967	-0.002474	0.002091			
21408	8751301	-0.221109	9.860581	-0.197304	-0.002587	-0.002645	-0.003299			
21409	8751326	-0.219617	9.875311	-0.166588	-0.009017	0.002474	-0.004533			
21410	8751351	-0.231825	9.869663	-0.179988	-0.004897	0.001708	-0.004551	91.198029	0.855717	13.169763
21411	8751376	-0.228929	9.861840	-0.163205	-0.007476	0.002639	-0.001973			
21412	8751401	-0.211566	9.861673	-0.199728	-0.004575	-0.002484	-0.002328			
21413	8751426	-0.215352	9.863620	-0.205424	-0.009322	0.000086	-0.001217			
21414	8751451	-0.241822	9.888967	-0.209575	-0.011344	-0.000399	0.001676	91.196007	0.855229	13.170009
21415	8751476	-0.224868	9.887268	-0.177176	-0.002921	0.002463	-0.000444			
21416	8751501	-0.223219	9.862823	-0.159906	-0.003818	-0.004013	-0.000416			
21417	8751526	-0.239416	9.876294	-0.185225	-0.003490	0.000259	0.000893			
21418	8751551	-0.208021	9.851933	-0.211213	-0.008592	0.001588	0.001609	91.195992	0.853949	13.170307
21419	8751576	-0.208414	9.863199	-0.171948	-0.005309	0.000674	-0.001472			
21420	8751601	-0.224975	9.856063	-0.184311	-0.005728	-0.000504	-0.004490			
21421	8751626	-0.218524	9.868084	-0.158894	-0.012080	0.000557	-0.000563			
21422	8751651	-0.216434	9.854545	-0.171469	-0.002588	0.003886	-0.000446	91.195007	0.853892	13.171265
21423	8751676	-0.212488	9.853281	-0.179156	-0.001310	-0.002034	0.001830			
21424	8751701	-0.213988	9.856631	-0.182490	-0.003576	-0.005439	-0.000425			
21425	8751726	-0.234197	9.873897	-0.179934	-0.008827	-0.005195	0.002094			
21426	8751751	-0.222130	9.889054	-0.168583	-0.002509	-0.000705	-0.001492	91.195358	0.852604	13.169604
21427	8751776	-0.209392	9.854918	-0.159469	-0.005171	-0.001851	-0.003158			
21428	8751801	-0.237995	9.883232	-0.203945	-0.003485	-0.002009	0.000560			
21429	8751826	-0.211637	9.856589	-0.177249	-0.003570	0.002515	0.000253			
21430	8751851	-0.235962	9.883099	-0.161764	-0.005013	0.003253	-0.006270	91.195541	0.852791	13.170163
21431	8751876	-0.234615	9.885839	-0.153611	-0.003919	-0.001185	-0.006936			
21432	8751901	-0.210670	9.860108	-0.189719	-0.002529	-0.000449	-0.004250			
21433	8751926	-0.237300	9.882216	-0.167052	-0.001696	-0.002369	-0.003174			
21434	8751951	-0.224851	9.875682	-0.164256	-0.001015	-0.001717	-0.005220	91.196907	0.854569	13.169674
21435	8751976	-0.223711	9.863971	-0.173316	-0.004445	-0.000744	-0.005907			
21436	8752001	-0.231510	9.852308	-0.192448	-0.004432	-0.002801	-0.002329			
21437	8752026	-0.233166	9.858200	-0.175699	-0.002068	-0.000964	-0.006942			
21438	8752051	-0.216472	9.864670	-0.182482	-0.004068	0.002117	-0.002433	91.197426	0.856057	13.169636
21439	8752076	-0.214309	9.839864	-0.171381	-0.008273	0.001462	-0.001726			
21440	8752101	-0.238940	9.866755	-0.181394	-0.003946	0.001915	-0.005703			
21441	8752126	-0.225935	9.848608	-0.163126	-0.012429	0.003126	-0.005296			
21442	8752151	-0.225793	9.876588	-0.162267	-0.006311	0.000203	-0.001159	91.195671	0.856986	13.170893
21443	8752176	-0.230590	9.889100	-0.178030	-0.009528	0.000735	0.000587			
21444	8752201	-0.221337	9.877992	-0.188654	-0.004120	-0.000468	-0.001739			
21445	8752226	-0.245566	9.894772	-0.157866	-0.005107	-0.003393	0.001001			
21446	8752251	-0.216369	9.851236	-0.172350	-0.007141	0.000060	-0.001864	91.194641	0.856243	13.170727
21447	8752276	-0.223074	9.851985	-0.164154	-0.010814	0.000969	-0.000176			
21448	8752301	-0.211708	9.863773	-0.181991	-0.004984	-0.003394	-0.000603			
21449	8752326	-0.234173	9.876021	-0.193840	-0.008215	-0.000544	-0.002564			
21450	8752351	-0.221525	9.875175	-0.159912	-0.005792	-0.002117	-0.000852	91.193062	0.855816	13.170304
21451	8752376	-0.230521	9.886321	-0.181870	-0.007983	-0.001696	-0.000457			
21452	8752401	-0.218817	9.863278	-0.186228	-0.009145	-0.003658	-0.002193			
21453	8752426	-0.221294	9.869233	-0.174770	-0.007427	-0.007243	0.001116			
21454	8752451	-0.236892	9.890702	-0.163670	-0.002745	-0.003220	0.001512	91.191788	0.854823	13.168283
21455	8752476	-0.224932	9.889564	-0.172342	-0.005923	-0.002050	-0.001234			
21456	8752501	-0.229718	9.862211	-0.187680	-0.005031	0.002427	-0.000376			
21457	8752526	-0.220899	9.878962	-0.189581	-0.008877	0.002354	-0.000948			
21458	8752551	-0.239567	9.859694	-0.216333	-0.005607	-0.002243	-0.003482	91.190826	0.854646	13.168634
21459	8752576	-0.207896	9.842840	-0.206039	-0.001775	-0.001259	0.003117			
21460	8752601	-0.206110	9.846070	-0.198325	-0.004619	-0.004931	-0.000036			
21461	8752626	-0.225641	9.877088	-0.195338	-0.007012	0.003867	-0.003508			
21462	8752651	-0.220684	9.853988	-0.169577	0.001809	-0.001657	-0.000609	91.191849	0.853763	13.168329
21463	8752676	-0.225630	9.880381	-0.193561	0.004102	0.000976	0.000612			
21464	8752701	-0.245309	9.880913	-0.181314	-0.009094	0.000854	-0.006278			
21465	8752726	-0.235091	9.867847	-0.188135	-0.003298	0.003935	-0.003386			
21466	8752751	-0.212456	9.842393	-0.180151	0.000124	-0.001374	-0.004385	91.193367	0.854637	13.169285
21467	8752776	-0.245631	9.867622	-0.181880	0.000381	-0.001624	-0.007726			
21468	8752801	-0.244906	9.867449	-0.138638	-0.007403	0.002189	-0.002554			
21469	8752826	-0.230824	9.855970	-0.152177	-0.006306	0.002144	-0.001208			
21470	8752851	-0.224435	9.886199	-0.169025	-0.003897	-0.001499	-0.002389	91.193581	0.855577	13.169767
21471	8752876	-0.212019	9.883061	-0.170958	-0.006104	0.003693	-0.000052			
21472	8752901	-0.207169	9.855490	-0.194948	-0.005805	-0.001654	0.001907			
21473	8752926	-0.235231	9.876283	-0.181395	-0.005774	-0.000763	-0.002447			
21474	8752951	-0.245825	9.875587	-0.144464	-0.002840	-0.002183	0.002544	91.193329	0.854258	13.169883
21475	8752976	-0.244317	9.879006	-0.180845	-0.007027	-0.001819	-0.003022			
21476	8753001	-0.249526	9.889169	-0.197692	-0.001818	-0.002110	-0.000085			
21477	8753026	-0.229430	9.870158	-0.178957	-0.010879	0.000700	-0.000501			
21478	8753051	-0.196756	9.853644	-0.189796	-0.004171	-0.002861	-0.000730	91.192558	0.853860	13.169279
21479	8753076	-0.197331	9.822294	-0.187778	-0.007845	0.002114	-0.000696			
21480	8753101	-0.213668	9.857281	-0.162342	-0.007157	0.000380	-0.002310			
21481	8753126	-0.230533	9.881556	-0.180974	-0.002968	-0.002651	-0.003101			
21482	8753151	-0.235579	9.871233	-0.192426	-0.005135	-0.000817	-0.004242	91.191940	0.854301	13.169428
21483	8753176	-0.219326	9.861233	-0.176710	-0.004034	-0.003181	-0.001116			
21484	8753201	-0.218971	9.868913	-0.181991	-0.003387	0.000308	-0.005394			
21485	8753226	-0.207536	9.870747	-0.168561	-0.007233	-0.003234	-0.000146			
21486	8753251	-0.227893	9.893304	-0.171419	-0.002541	-0.001609	-0.001688	91.192131	0.854477	13.168610
21487	8753276	-0.213072	9.861146	-0.197335	-0.003073	0.000514	-0.004497			
21488	8753301	-0.235186	9.869350	-0.162188	-0.008744	-0.002033	-0.001353			
21489	8753326	-0.211317	9.890943	-0.158536	-0.003839	-0.001767	-0.007007			
21490	8753351	-0.222773	9.870702	-0.178110	-0.004181	0.001660	-0.001991	91.191971	0.855570	13.168689
21491	8753376	-0.227697	9.856272	-0.200639	-0.002882	-0.005294	-0.001641			
21492	8753401	-0.258278	9.885870	-0.174547	-0.008102	-0.002556	-0.007382			
21493	8753426	-0.230348	9.869138	-0.175175	-0.005996	0.002474	-0.000051			
21494	8753451	-0.218045	9.869261	-0.173312	-0.006863	0.003292	-0.002678	91.191223	0.856218	13.168699
21495	8753476	-0.248621	9.872079	-0.165507	-0.006868	-0.000721	-0.004752			
21496	8753501	-0.255297	9.868978	-0.154000	-0.002852	-0.002325	-0.004256			
21497	8753526	-0.228008	9.873647	-0.188620	-0.005157	-0.004497	-0.004835			
21498	8753551	-0.229224	9.878342	-0.155561	-0.005417	0.002086	-0.004485	91.190994	0.857818	13.168240
21499	8753576	-0.222477	9.847493	-0.180484	-0.006190	-0.001864	-0.002514			
21500	8753601	-0.240143	9.861809	-0.200133	-0.000364	0.002505	-0.000842			
21501	8753626	-0.219005	9.870103	-0.167094	-0.006366	-0.000121	-0.000452			
21502	8753651	-0.195863	9.852441	-0.172021	-0.004332	0.002503	-0.000127	91.191223	0.857329	13.168955
21503	8753676	-0.221758	9.876272	-0.200650	-0.006697	0.002067	-0.000954			
21504	8753701	-0.223900	9.855220	-0.191006	-0.006680	0.001816	0.000392			
21505	8753726	-0.206339	9.887457	-0.174871	-0.002992	-0.001940	-0.002587			
21506	8753751	-0.209770	9.869740	-0.197820	-0.007063	-0.000389	-0.000843	91.190529	0.856854	13.169447
21507	8753776	-0.218800	9.847312	-0.165705	-0.002472	-0.000252	-0.005208			
21508	8753801	-0.214512	9.857531	-0.178613	-0.005932	-0.002186	-0.003603			
21509	8753826	-0.235305	9.893116	-0.196733	-0.005269	0.001773	0.000776			
21510	8753851	-0.232717	9.864825	-0.174242	-0.003824	-0.001630	-0.001301	91.190697	0.857160	13.169434
21511	8753876	-0.241913	9.875278	-0.182813	-0.005643	0.002919	-0.006397			
21512	8753901	-0.235667	9.862108	-0.154568	-0.005989	-0.000052	-0.002505			
21513	8753926	-0.230021	9.846001	-0.182027	0.002855	0.001979	0.000432			
21514	8753951	-0.231764	9.867316	-0.180920	-0.003836	0.002831	-0.003579	91.191582	0.857820	13.170820
21515	8753976	-0.218867	9.859360	-0.178118	-0.007954	0.001135	-0.004804			
21516	8754001	-0.218117	9.868550	-0.158015	-0.002508	-0.000636	-0.001687			
21517	8754026	-0.229220	9.858481	-0.191550	-0.002477	-0.000194	-0.006230			
21518	8754051	-0.257144	9.867768	-0.169324	-0.004166	0.000751	-0.005712	91.191818	0.859415	13.171299
21519	8754076	-0.238039	9.865534	-0.162694	-0.004414	-0.001445	-0.001998			
21520	8754101	-0.235216	9.876798	-0.183814	-0.004685	-0.007203	-0.003891			
21521	8754126	-0.225348	9.882891	-0.170911	-0.004572	-0.000219	-0.002190			
21522	8754151	-0.210341	9.856325	-0.158506	-0.003670	0.001478	-0.001796	91.191994	0.859810	13.170556
21523	8754176	-0.211651	9.860050	-0.186359	-0.002410	-0.002061	-0.003874			
21524	8754201	-0.230734	9.855405	-0.177629	-0.000121	-0.003958	-0.005688			
21525	8754226	-0.245695	9.873176	-0.172286	-0.003177	0.000319	-0.002380			
21526	8754251	-0.235621	9.872847	-0.174189	-0.005749	-0.001396	0.001788	91.193016	0.860242	13.169819
21527	8754276	-0.223913	9.847064	-0.184799	-0.007463	-0.000212	-0.003722			
21528	8754301	-0.219990	9.865767	-0.163687	-0.008643	-0.001460	-0.004113			
21529	8754326	-0.210874	9.876283	-0.192064	-0.005308	0.000475	-0.003338			
21530	8754351	-0.218853	9.873857	-0.195396	-0.003690	0.002384	-0.000638	91.192108	0.860890	13.170279
21531	8754376	-0.206683	9.847363	-0.190137	-0.006066	-0.003606	-0.000797			
21532	8754401	-0.211742	9.860201	-0.165232	-0.003998	-0.002208	-0.001049			
21533	8754426	-0.224179	9.863991	-0.174759	-0.005357	-0.001983	-0.004055			
21534	8754451	-0.235192	9.875846	-0.182835	-0.003530	0.003092	-0.002877	91.192085	0.861120	13.169872
21535	8754476	-0.228902	9.870932	-0.198133	-0.011529	-0.001255	-0.004676			
21536	8754501	-0.212776	9.833409	-0.182432	-0.007454	-0.002471	-0.003093			
21537	8754526	-0.227934	9.902230	-0.166073	-0.005841	-0.002560	0.001009			
21538	8754551	-0.206776	9.852989	-0.186350	-0.003304	0.000125	0.000183	91.190704	0.861040	13.169279
21539	8754576	-0.228598	9.849091	-0.197220	-0.007242	-0.001174	-0.002956			
21540	8754601	-0.228657	9.852405	-0.197218	-0.007084	0.000054	-0.001986			
21541	8754626	-0.229692	9.894376	-0.180926	-0.006169	-0.000177	0.001724			
21542	8754651	-0.233556	9.863186	-0.191956	-0.006481	-0.002970	-0.003865	91.189507	0.861025	13.168962
21543	8754676	-0.235710	9.841201	-0.183797	-0.005016	-0.002424	-0.000595			
21544	8754701	-0.229351	9.856771	-0.172331	-0.004224	-0.001445	-0.005209			
21545	8754726	-0.232740	9.871155	-0.184787	-0.004183	0.003663	-0.003512			
21546	8754751	-0.223610	9.849994	-0.158976	-0.000313	0.000699	-0.002065	91.190208	0.861615	13.169325
21547	8754776	-0.230767	9.861602	-0.179010	-0.005546	-0.001983	-0.003158			
21548	8754801	-0.216218	9.848764	-0.196758	-0.009152	0.002667	-0.003511			
21549	8754826	-0.208776	9.859135	-0.186286	-0.007579	-0.000405	-0.002380			
21550	8754851	-0.226848	9.858443	-0.186719	-0.005302	0.002609	-0.001463	91.188942	0.862072	13.170021
21551	8754876	-0.232247	9.867101	-0.167969	-0.008520	-0.002542	0.002812			
21552	8754901	-0.234538	9.862214	-0.190984	-0.005670	0.001757	-0.005575			
21553	8754926	-0.230885	9.880844	-0.196228	-0.008307	0.000294	-0.003394			
21554	8754951	-0.243652	9.898895	-0.177029	-0.005931	0.002012	-0.004609	91.187553	0.862567	13.170541
21555	8754976	-0.238149	9.886827	-0.190014	-0.005487	-0.001790	-0.002581			
21556	8755001	-0.244130	9.874166	-0.204776	-0.008978	-0.000887	-0.004877			
21557	8755026	-0.227113	9.874885	-0.176127	-0.011729	-0.002480	-0.000258			
21558	8755051	-0.227332	9.860007	-0.195827	-0.003444	-0.003953	-0.005223	91.185966	0.863406	13.169536
21559	8755076	-0.230293	9.861541	-0.174719	-0.004457	-0.006162	-0.002477			
21560	8755101	-0.254463	9.868765	-0.139068	-0.010137	-0.002779	-0.005712			
21561	8755126	-0.239695	9.882052	-0.158337	-0.008053	-0.001572	-0.001478			
21562	8755151	-0.240794	9.864779	-0.178521	-0.003789	-0.004856	-0.000995	91.184814	0.863939	13.167643
21563	8755176	-0.222386	9.841739	-0.177102	-0.006858	0.001492	0.001867			
21564	8755201	-0.244654	9.862193	-0.166887	-0.010838	-0.002530	-0.001673			
21565	8755226	-0.235151	9.895325	-0.154109	-0.003557	-0.000007	-0.002123			
21566	8755251	-0.203598	9.862378	-0.177257	-0.006172	0.004086	-0.000817	91.183571	0.863281	13.168353
21567	8755276	-0.235372	9.877926	-0.164097	-0.007588	0.003989	-0.003888			
21568	8755301	-0.225589	9.872169	-0.183367	-0.004695	0.003788	-0.001907			
21569	8755326	-0.215797	9.883583	-0.177183	-0.006893	0.000122	-0.004297			
21570	8755351	-0.231289	9.873237	-0.195258	-0.007668	-0.003897	-0.003995	91.182404	0.864246	13.169214
21571	8755376	-0.235470	9.868333	-0.189069	-0.007321	-0.002262	0.000951			
21572	8755401	-0.238523	9.872977	-0.184753	-0.003004	-0.001557	-0.005150			
21573	8755426	-0.207573	9.863989	-0.161433	-0.004889	0.001319	-0.004612			
21574	8755451	-0.226668	9.867048	-0.159403	-0.003025	-0.000842	-0.003731	91.182449	0.865014	13.169029
21575	8755476	-0.218107	9.870483	-0.160409	-0.003137	0.001034	-0.001293			
21576	8755501	-0.237570	9.874216	-0.172287	-0.004083	-0.001433	0.001331			
21577	8755526	-0.225667	9.871162	-0.180002	-0.005928	-0.001997	-0.003737			
21578	8755551	-0.214007	9.852690	-0.172405	-0.003690	0.000055	-0.002059	91.182709	0.864806	13.168975
21579	8755576	-0.239794	9.855040	-0.160758	-0.005378	-0.001003	-0.000653			
21580	8755601	-0.220785	9.857175	-0.160851	-0.006184	-0.001928	-0.000335			
21581	8755626	-0.221607	9.852725	-0.180530	-0.002007	0.001571	-0.003535			
21582	8755651	-0.226930	9.864725	-0.194346	-0.007050	0.000894	-0.003776	91.182426	0.864953	13.169170
21583	8755676	-0.225469	9.866145	-0.192929	-0.009049	-0.004755	-0.001940			
21584	8755701	-0.231185	9.866655	-0.199148	-0.003554	0.001800	-0.003526			
21585	8755726	-0.212467	9.870479	-0.155564	-0.009593	0.000462	-0.002684			
21586	8755751	-0.205374	9.851956	-0.179149	-0.003967	-0.003634	-0.002593	91.181335	0.865470	13.168576
21587	8755776	-0.186227	9.852881	-0.194114	-0.003634	-0.001620	0.000107			
21588	8755801	-0.248427	9.867184	-0.186149	-0.004224	0.000751	-0.004619			
21589	8755826	-0.204341	9.883019	-0.193448	-0.012311	0.003316	-0.006510			
21590	8755851	-0.229113	9.884941	-0.183384	-0.004047	0.005408	-0.003441	91.180580	0.866476	13.170015
21591	8755876	-0.210524	9.840371	-0.171017	-0.002849	-0.004065	0.000286			
21592	8755901	-0.219673	9.857592	-0.187734	-0.005156	-0.001973	-0.000209			
21593	8755926	-0.211118	9.851374	-0.177704	-0.006279	-0.003032	-0.001815			
21594	8755951	-0.227863	9.856339	-0.173744	-0.004500	-0.000352	-0.000262	91.180534	0.865751	13.168938
21595	8755976	-0.233529	9.856339	-0.178993	-0.006008	-0.001468	-0.001360			
21596	8756001	-0.239837	9.909490	-0.185186	-0.007068	0.004265	0.001119			
21597	8756026	-0.234772	9.884439	-0.186624	-0.009255	-0.003919	0.000498			
21598	8756051	-0.255061	9.873491	-0.200962	-0.005439	-0.005534	-0.003558	91.179222	0.865203	13.168283
21599	8756076	-0.230894	9.842385	-0.194845	-0.004123	-0.004478	-0.001249			
21600	8756101	-0.230527	9.880522	-0.175689	-0.005928	0.002216	0.000198			
21601	8756126	-0.246219	9.887679	-0.189961	-0.003210	-0.005040	-0.000294			
21602	8756151	-0.207171	9.885814	-0.192104	-0.006273	-0.003289	-0.002460	91.179085	0.864737	13.167034
21603	8756176	-0.239453	9.882820	-0.208712	-0.004302	-0.000934	-0.005659			
21604	8756201	-0.229965	9.873269	-0.166544	-0.007281	-0.003554	0.002289			
21605	8756226	-0.218156	9.849456	-0.181943	-0.005680	0.004674	0.001240			
21606	8756251	-0.208418	9.863194	-0.172389	-0.006682	-0.004201	0.000872	91.178322	0.863890	13.166730
21607	8756276	-0.233574	9.855074	-0.189036	-0.009145	-0.002056	-0.007764			
21608	8756301	-0.219414	9.832393	-0.183868	-0.004454	0.003913	-0.004345			
21609	8756326	-0.222693	9.834321	-0.188691	-0.003166	0.001879	0.000767			
21610	8756351	-0.221044	9.830338	-0.143124	-0.005022	-0.000288	-0.002448	91.177841	0.864816	13.167546
21611	8756376	-0.221579	9.861955	-0.195849	-0.005013	-0.002293	0.001074			
21612	8756401	-0.247575	9.874211	-0.179903	-0.004764	-0.004683	-0.004070			
21613	8756426	-0.214847	9.879969	-0.157539	-0.005917	0.002350	0.002062			
21614	8756451	-0.209504	9.874225	-0.181080	-0.002836	-0.000583	-0.003096	91.177864	0.864365	13.167074
21615	8756476	-0.200805	9.855434	-0.154692	-0.006993	-0.000712	-0.000839			
21616	8756501	-0.254271	9.877324	-0.171637	-0.010410	0.000462	0.001296			
21617	8756526	-0.224484	9.888248	-0.178635	-0.002594	-0.002459	-0.005281			
21618	8756551	-0.192250	9.837635	-0.193598	-0.004558	0.001270	-0.001283	91.177025	0.864206	13.167150
21619	8756576	-0.219715	9.860073	-0.194444	-0.003298	-0.000593	-0.005333			
21620	8756601	-0.230384	9.874943	-0.182873	-0.005804	0.000410	0.000450			
21621	8756626	-0.222935	9.881486	-0.169934	-0.004524	0.000301	-0.000323			
21622	8756651	-0.214716	9.877062	-0.184388	-0.004223	-0.003381	-0.003166	91.177147	0.864373	13.166987
21623	8756676	-0.217198	9.874804	-0.162330	-0.003017	-0.000773	-0.001365			
21624	8756701	-0.219648	9.882156	-0.180530	-0.007787	0.001843	-0.007944			
21625	8756726	-0.236047	9.869196	-0.183327	-0.002113	-0.001079	-0.000982			
21626	8756751	-0.240841	9.874260	-0.177975	-0.008881	0.000621	0.003274	91.176674	0.864337	13.167360
21627	8756776	-0.232467	9.858179	-0.205374	-0.006509	-0.000194	-0.004488			
21628	8756801	-0.228949	9.869261	-0.182835	-0.006577	-0.001810	-0.002700			
21629	8756826	-0.214223	9.871161	-0.170085	0.000100	0.002061	-0.000910			
21630	8756851	-0.219494	9.865597	-0.151715	-0.005932	0.000539	0.000705	91.176643	0.864352	13.167738
21631	8756876	-0.222155	9.856409	-0.174310	-0.004272	0.000304	-0.001803			
21632	8756901	-0.207443	9.893372	-0.159000	-0.006568	0.000136	-0.001739			
21633	8756926	-0.237323	9.878818	-0.162699	-0.004543	0.002481	-0.008070			
21634	8756951	-0.246534	9.880691	-0.199521	-0.009577	-0.001721	0.001092	91.175743	0.864816	13.168215
21635	8756976	-0.215331	9.848014	-0.177136	-0.007516	-0.004341	-0.000794			
21636	8757001	-0.244331	9.877302	-0.162184	-0.004824	-0.000153	0.000250			
21637	8757026	-0.213706	9.871170	-0.170954	-0.005183	-0.002931	0.003952			
21638	8757051	-0.226811	9.854139	-0.184317	-0.005722	-0.000304	-0.002059	91.175079	0.863605	13.167378
21639	8757076	-0.255551	9.870977	-0.191870	-0.004715	0.000036	-0.002502			
21640	8757101	-0.239376	9.879872	-0.202481	-0.005367	-0.001259	-0.000142			
21641	8757126	-0.239075	9.878545	-0.176642	-0.001031	-0.001064	-0.001940			
21642	8757151	-0.233459	9.868637	-0.207300	-0.003342	-0.000639	0.002678	91.175667	0.862846	13.167228
21643	8757176	-0.236255	9.851858	-0.198123	-0.009015	-0.001724	-0.002372			
21644	8757201	-0.247240	9.887955	-0.178464	-0.005710	-0.000624	-0.000457			
21645	8757226	-0.246323	9.876352	-0.163592	-0.006503	0.001678	-0.005120			
21646	8757251	-0.219627	9.853835	-0.189641	-0.005612	-0.004052	-0.002655	91.174484	0.863337	13.166860
21647	8757276	-0.210980	9.878321	-0.171015	-0.005150	-0.002038	0.000370			
21648	8757301	-0.209765	9.860521	-0.184425	-0.002517	-0.002575	-0.002530			
21649	8757326	-0.245720	9.879006	-0.181816	-0.007105	0.000966	-0.002433			
21650	8757351	-0.228175	9.876178	-0.168485	-0.004514	-0.002550	-0.005862	91.174370	0.863813	13.166275
21651	8757376	-0.202805	9.839260	-0.184485	0.000091	0.000192	0.000492			
21652	8757401	-0.207383	9.861509	-0.185466	0.001824	0.006165	-0.001346			
21653	8757426	-0.222341	9.875861	-0.174761	-0.004150	0.003028	0.002189			
21654	8757451	-0.239481	9.879700	-0.191455	-0.006746	-0.002326	-0.001231	91.175781	0.862737	13.167539
21655	8757476	-0.222254	9.864961	-0.174365	0.000896	-0.001228	-0.003617			
21656	8757501	-0.234007	9.873943	-0.150762	-0.002280	0.001881	-0.005774			
21657	8757526	-0.204639	9.874423	-0.189729	-0.007084	-0.004014	-0.002523			
21658	8757551	-0.228140	9.888034	-0.198708	-0.001691	-0.002693	-0.004905	91.176979	0.864125	13.166999
21659	8757576	-0.236954	9.856102	-0.165587	-0.005943	0.004862	-0.001132			
21660	8757601	-0.231460	9.854685	-0.193389	-0.004917	-0.003447	0.002603			
21661	8757626	-0.214540	9.860799	-0.175724	-0.006157	0.001240	0.000006			
21662	8757651	-0.232819	9.874286	-0.173275	-0.004129	-0.001891	0.000626	91.176643	0.862781	13.167360
21663	8757676	-0.213256	9.843627	-0.199713	-0.004601	0.002754	-0.000636			
21664	8757701	-0.211036	9.849523	-0.180038	-0.009103	-0.000942	-0.001410			
21665	8757726	-0.231423	9.884183	-0.198225	-0.001971	-0.001861	-0.004637			
21666	8757751	-0.196043	9.864485	-0.184018	-0.005193	-0.005475	-0.006318	91.176315	0.863619	13.166877
21667	8757776	-0.211698	9.864736	-0.182496	-0.004335	-0.003961	-0.002339			
21668	8757801	-0.209633	9.857343	-0.194508	-0.001256	0.002235	-0.001863			
21669	8757826	-0.232021	9.884758	-0.174223	-0.006312	-0.000058	-0.001346			
21670	8757851	-0.242399	9.878061	-0.178553	-0.001626	-0.000298	-0.002131	91.177025	0.863685	13.166880
21671	8757876	-0.240654	9.859271	-0.190012	-0.006369	-0.000127	-0.003402			
21672	8757901	-0.208228	9.884955	-0.168154	-0.002708	-0.002573	-0.000152			
21673	8757926	-0.210515	9.875628	-0.180137	0.000082	-0.004278	-0.006075			
21674	8757951	-0.222444	9.878124	-0.167563	-0.007105	-0.001171	-0.003088	91.177361	0.864490	13.166001
21675	8757976	-0.221267	9.857689	-0.163327	-0.001200	-0.003847	-0.002214			
21676	8758001	-0.219969	9.878246	-0.173277	-0.008030	0.004318	0.002651			
21677	8758026	-0.239284	9.882069	-0.159311	-0.007012	-0.000268	-0.004870			
21678	8758051	-0.233326	9.883954	-0.184799	-0.003050	-0.001800	0.000364	91.177292	0.864037	13.166059
21679	8758076	-0.233457	9.845370	-0.175161	-0.004736	-0.003459	-0.003231			
21680	8758101	-0.217460	9.858865	-0.175721	-0.005561	0.000399	-0.005969			
21681	8758126	-0.227158	9.861703	-0.152280	-0.001623	0.001243	-0.006744			
21682	8758151	-0.252175	9.871155	-0.200521	-0.002158	-0.001793	-0.002590	91.177933	0.865660	13.165862
21683	8758176	-0.221559	9.858152	-0.193911	-0.008576	0.002877	-0.001390			
21684	8758201	-0.233859	9.860544	-0.205861	-0.004543	0.005217	0.001816			
21685	8758226	-0.221826	9.871204	-0.179538	-0.006905	0.000577	-0.002949			
21686	8758251	-0.248314	9.894506	-0.173103	-0.010078	-0.002249	-0.000964	91.176270	0.865104	13.167039
21687	8758276	-0.216633	9.837135	-0.181451	-0.009602	0.000721	-0.001721			
21688	8758301	-0.215538	9.863822	-0.188251	-0.002638	0.002906	-0.006406			
21689	8758326	-0.224308	9.895103	-0.192992	-0.005554	-0.003585	0.002094			
21690	8758351	-0.226656	9.876195	-0.168489	-0.005120	-0.000928	0.003514	91.175652	0.864427	13.167198
21691	8758376	-0.250617	9.898483	-0.187571	-0.004923	-0.002794	0.004981			
21692	8758401	-0.242913	9.877946	-0.171761	-0.008100	0.002044	-0.002228			
21693	8758426	-0.209685	9.853191	-0.171058	0.000201	-0.001097	0.001900			
21694	8758451	-0.185879	9.843368	-0.160580	-0.004412	0.000618	-0.001800	91.175865	0.862981	13.167303
21695	8758476	-0.239301	9.856664	-0.173743	-0.001368	-0.000356	-0.001682			
21696	8758501	-0.232122	9.862982	-0.178064	-0.005542	0.000420	0.003459			
21697	8758526	-0.241007	9.881819	-0.175715	0.000905	0.003050	0.000829			
21698	8758551	-0.229339	9.857643	-0.167083	-0.000656	-0.004603	-0.000562	91.177567	0.861653	13.167357
21699	8758576	-0.225150	9.873559	-0.181515	-0.001648	0.000483	0.000751			
21700	8758601	-0.227716	9.871162	-0.150726	-0.007802	-0.001572	-0.001994			
21701	8758626	-0.229603	9.889230	-0.185246	-0.006405	-0.003089	-0.000916			
21702	8758651	-0.228826	9.863524	-0.179483	-0.008108	-0.001508	0.001341	91.176788	0.860747	13.166807
21703	8758676	-0.231654	9.858794	-0.182831	-0.007230	-0.001307	-0.002187			
21704	8758701	-0.208678	9.876726	-0.157495	-0.011671	-0.004546	-0.000721			
21705	8758726	-0.214899	9.890278	-0.179610	-0.005549	-0.004180	-0.003810			
21706	8758751	-0.231806	9.869216	-0.181443	-0.003096	-0.000523	-0.004248	91.175484	0.861306	13.165581
21707	8758776	-0.240500	9.880506	-0.182408	-0.001456	0.000478	-0.001745			
21708	8758801	-0.225265	9.885056	-0.188667	-0.002843	-0.002256	-0.000727			
21709	8758826	-0.245364	9.897772	-0.198571	-0.008230	-0.002027	-0.001481			
21710	8758851	-0.245039	9.855618	-0.172235	-0.005727	-0.000440	-0.003085	91.175537	0.861289	13.165269
21711	8758876	-0.236426	9.861202	-0.188529	-0.010101	-0.003812	-0.004436			
21712	8758901	-0.233306	9.876307	-0.180907	-0.007084	0.004455	-0.001834			
21713	8758926	-0.249371	9.865204	-0.181740	-0.010802	-0.003952	-0.002447			
21714	8758951	-0.229739	9.852539	-0.174761	-0.001378	-0.002238	-0.003298	91.173981	0.861984	13.164771
21715	8758976	-0.227213	9.855408	-0.205894	-0.003552	-0.000462	-0.003153			
21716	8759001	-0.205001	9.852895	-0.178201	-0.004798	0.000283	-0.007382			
21717	8759026	-0.204840	9.880371	-0.175741	-0.008434	0.004427	-0.003564			
21718	8759051	-0.247125	9.868653	-0.157375	-0.005318	0.001392	-0.000189	91.173508	0.862974	13.165888
21719	8759076	-0.244891	9.880268	-0.170331	-0.005482	-0.004248	-0.005217			
21720	8759101	-0.199817	9.862383	-0.174378	-0.005656	0.001769	-0.001666			
21721	8759126	-0.227960	9.868974	-0.193406	-0.005779	0.001107	-0.005189			
21722	8759151	-0.213247	9.873678	-0.179118	-0.005551	0.000413	-0.001419	91.172935	0.863871	13.166059
21723	8759176	-0.231780	9.860897	-0.164653	-0.002876	0.000650	-0.001995			
21724	8759201	-0.222968	9.881473	-0.169051	-0.003831	-0.001502	-0.002584			
21725	8759226	-0.247506	9.873426	-0.189990	-0.003339	-0.000909	-0.002062			
21726	8759251	-0.242646	9.896095	-0.179503	-0.000972	-0.003333	-0.007471	91.174026	0.864868	13.165659
21727	8759276	-0.226080	9.836270	-0.193866	-0.005728	-0.000440	-0.003850			
21728	8759301	-0.246925	9.865732	-0.183273	-0.004604	0.000949	0.000897			
21729	8759326	-0.237369	9.855225	-0.170839	-0.004891	0.001845	-0.001211			
21730	8759351	-0.218726	9.847469	-0.176171	-0.010420	-0.004078	-0.005785	91.173019	0.865255	13.165713
21731	8759376	-0.231598	9.848073	-0.164156	-0.006473	-0.005226	-0.001055			
21732	8759401	-0.234595	9.875074	-0.195225	-0.009610	0.001247	-0.001335			
21733	8759426	-0.216718	9.848518	-0.180954	-0.013025	-0.001912	0.002891			
21734	8759451	-0.226467	9.860738	-0.181399	-0.008224	-0.002617	-0.004499	91.170311	0.864815	13.164811
21735	8759476	-0.214465	9.858192	-0.191099	-0.005585	0.001244	-0.003722			
21736	8759501	-0.226608	9.871615	-0.179035	-0.005284	-0.000301	-0.003722			
21737	8759526	-0.218695	9.855731	-0.188660	-0.005159	0.002226	-0.001729			
21738	8759551	-0.230886	9.870606	-0.179029	-0.003202	0.002971	-0.001340	91.170212	0.865264	13.165997
21739	8759576	-0.239500	9.870436	-0.174203	-0.005679	0.000080	-0.003722			
21740	8759601	-0.210968	9.868093	-0.153266	-0.003059	0.004849	0.000526			
21741	8759626	-0.224842	9.880102	-0.174244	-0.006473	0.000775	-0.004420			
21742	8759651	-0.226561	9.866680	-0.166605	-0.003265	0.001167	0.001022	91.170288	0.865143	13.167275
21743	8759676	-0.204364	9.843262	-0.168637	-0.002025	0.000285	-0.000395			
21744	8759701	-0.229070	9.841141	-0.174238	-0.004698	-0.004160	0.001381			
21745	8759726	-0.221454	9.871936	-0.164747	-0.002728	0.002201	-0.002632			
21746	8759751	-0.223161	9.824676	-0.178597	-0.004420	-0.001253	-0.003670	91.170944	0.864873	13.167119
21747	8759776	-0.244742	9.868836	-0.166995	-0.004348	0.000489	-0.002885			
21748	8759801	-0.213235	9.872455	-0.193006	-0.006381	-0.006206	-0.004460			
21749	8759826	-0.226089	9.872150	-0.182413	-0.003858	-0.002664	-0.002460			
21750	8759851	-0.224999	9.851238	-0.179534	-0.007963	-0.003076	-0.009756	91.170364	0.866668	13.165806
21751	8759876	-0.228222	9.893109	-0.189562	-0.007652	-0.000022	-0.002237			
21752	8759901	-0.217768	9.844047	-0.168547	-0.002803	0.000191	-0.002761			
21753	8759926	-0.234205	9.870571	-0.179057	-0.002648	-0.002584	-0.003608			
21754	8759951	-0.243168	9.870206	-0.193354	-0.003363	0.003925	-0.005113	91.170662	0.867588	13.166320
21755	8759976	-0.200410	9.875937	-0.192076	-0.008734	0.001504	-0.004920			
21756	8760001	-0.218548	9.872584	-0.173387	-0.002895	-0.004984	-0.004327			
21757	8760026	-0.215150	9.858097	-0.154123	-0.009075	0.000405	-0.002228			
21758	8760051	-0.229876	9.859584	-0.170398	-0.004347	0.000483	-0.005518	91.169746	0.868988	13.166257
21759	8760076	-0.245035	9.861393	-0.177021	-0.007655	-0.002021	-0.001410			
21760	8760101	-0.233702	9.895940	-0.162219	-0.009528	-0.005811	-0.004631			
21761	8760126	-0.227965	9.866841	-0.179023	-0.007924	-0.001641	-0.003146			
21762	8760151	-0.237439	9.852752	-0.164166	-0.001521	-0.001860	-0.004955	91.168564	0.870009	13.164939
21763	8760176	-0.224689	9.828152	-0.158928	-0.005192	0.001517	0.001293			
21764	8760201	-0.229270	9.848031	-0.159308	-0.009580	0.000204	-0.002681			
21765	8760226	-0.233309	9.883624	-0.194388	-0.002982	0.002193	-0.002620			
21766	8760251	-0.232195	9.888722	-0.154555	-0.007294	0.003023	-0.002669	91.167702	0.869904	13.166225
21767	8760276	-0.225249	9.867148	-0.164642	-0.007270	-0.006615	-0.007017			
21768	8760301	-0.227863	9.867115	-0.195822	-0.005682	0.000465	-0.001727			
21769	8760326	-0.221483	9.893706	-0.192991	-0.003634	-0.003433	0.001840			
21770	8760351	-0.216764	9.884005	-0.174734	-0.008774	-0.000817	-0.000447	91.166702	0.869949	13.165029
21771	8760376	-0.230322	9.873150	-0.189999	-0.009967	-0.001545	0.000842			
21772	8760401	-0.229365	9.865252	-0.168902	-0.008705	0.001326	0.001429			
21773	8760426	-0.244806	9.878838	-0.169421	0.000225	0.002253	-0.000189			
21774	8760451	-0.224402	9.855765	-0.195886	-0.001875	-0.000830	-0.003216	91.166443	0.869069	13.165468
21775	8760476	-0.226617	9.835029	-0.175755	-0.000474	-0.002220	0.000036			
21776	8760501	-0.250863	9.867872	-0.171732	-0.004140	0.000367	-0.000694			
21777	8760526	-0.227074	9.874350	-0.172287	-0.009142	-0.001334	0.001800			
21778	8760551	-0.219535	9.842737	-0.177187	-0.003828	-0.001696	-0.000651	91.166588	0.867971	13.165048
21779	8760576	-0.216065	9.834817	-0.184382	-0.005068	0.001319	0.000069			
21780	8760601	-0.235391	9.890392	-0.173304	-0.002037	0.000794	0.001663			
21781	8760626	-0.218494	9.871788	-0.183834	-0.009878	0.001289	-0.004657			
21782	8760651	-0.225782	9.853217	-0.185731	-0.006989	0.003617	-0.000294	91.165840	0.867372	13.166330
21783	8760676	-0.240213	9.866049	-0.199107	-0.006494	-0.004268	-0.001363			
21784	8760701	-0.224007	9.896141	-0.198729	-0.005688	-0.001682	-0.006483			
21785	8760726	-0.238895	9.892472	-0.156517	0.002378	0.002681	-0.002180			
21786	8760751	-0.232779	9.881229	-0.192431	-0.004582	-0.003965	0.000365	91.166428	0.867736	13.165580
21787	8760776	-0.234503	9.864120	-0.192327	-0.010639	0.001541	-0.000294			
21788	8760801	-0.232368	9.881247	-0.193398	-0.005321	-0.001152	-0.006223			
21789	8760826	-0.222705	9.876754	-0.201619	-0.004108	0.001335	-0.001146			
21790	8760851	-0.204132	9.841839	-0.199779	-0.004978	-0.001457	0.001341	91.165512	0.867598	13.165896
21791	8760876	-0.235174	9.865125	-0.165066	-0.007878	0.001137	-0.002354			
21792	8760901	-0.199059	9.832298	-0.161021	-0.002627	-0.003043	-0.001562			
21793	8760926	-0.240780	9.870233	-0.193346	-0.005318	0.001119	-0.001270			
21794	8760951	-0.233186	9.864384	-0.176748	0.005071	-0.005940	-0.004029	91.166618	0.867901	13.165232
21795	8760976	-0.237632	9.853928	-0.210142	-0.003040	-0.004663	-0.005484			
21796	8761001	-0.220626	9.851713	-0.175728	-0.004964	-0.002038	-0.001165			
21797	8761026	-0.220401	9.872031	-0.170892	-0.008944	-0.001262	0.003594			
21798	8761051	-0.233351	9.864455	-0.151245	-0.004126	-0.002161	-0.002578	91.166245	0.867699	13.164010
21799	8761076	-0.209661	9.847079	-0.173892	-0.001054	-0.004555	-0.003116			
21800	8761101	-0.200655	9.852375	-0.172032	-0.003566	-0.001824	-0.000530			
21801	8761126	-0.243572	9.891188	-0.169850	-0.005217	-0.001983	-0.001805			
21802	8761151	-0.212424	9.836910	-0.162759	-0.009613	0.001304	-0.001197	91.166092	0.867631	13.163287
21803	8761176	-0.236538	9.878540	-0.205873	-0.003891	-0.001445	-0.001292			
21804	8761201	-0.235143	9.867173	-0.175183	-0.002860	0.006524	-0.001442			
21805	8761226	-0.231348	9.876416	-0.186778	0.001998	-0.001532	-0.000860			
21806	8761251	-0.231209	9.862152	-0.184814	-0.001484	-0.003082	-0.004897	91.167877	0.867804	13.163624
