// General information: 
//  MT Manager version: 2022.0.0 
//  XDA version: 2022.0.0 build 7085 rev 119802 built on 2022-11-08
// Device information: 
//  DeviceId: 037004D1
//  ProductCode: MTi-300-2A5G4
//  Firmware Version: 1.4.1
//  Hardware Version: 2.1.0
// Device settings: 
//  Filter Profile: general(39.16)
//  Option Flags: Orientation Smoother Disabled, Position/Velocity Smoother Disabled, Continuous Zero Rotation Update Disabled, AHS Disabled, ICC Disabled
// Coordinate system: ENU
PacketCounter	SampleTimeFine	Acc_X	Acc_Y	Acc_Z	Gyr_X	Gyr_Y	Gyr_Z	Roll	Pitch	Yaw
23505	7165326	-0.169587	0.153829	-9.842788	-0.004199	0.001252	-0.002114			
23506	7165351	-0.190669	0.170874	-9.857069	-0.003576	-0.000025	0.001977	179.806870	0.946473	-89.521461
23507	7165376	-0.172431	0.139681	-9.817378	-0.004123	-0.001402	-0.005145			
23508	7165401	-0.178784	0.156748	-9.825974	-0.001310	0.000581	-0.005013			
23509	7165426	-0.155687	0.145504	-9.841900	-0.004321	-0.001341	-0.005856			
23510	7165451	-0.168398	0.157231	-9.809724	-0.008848	0.000194	-0.005636	179.806549	0.946522	-89.519394
23511	7165476	-0.177229	0.138542	-9.811595	-0.003619	-0.003336	-0.005415			
23512	7165501	-0.162089	0.140550	-9.808801	0.001352	-0.004597	-0.001270			
23513	7165526	-0.157350	0.157126	-9.828958	-0.004765	-0.003545	-0.005156			
23514	7165551	-0.184177	0.178817	-9.844642	-0.001898	-0.000848	-0.004634	179.807617	0.948053	-89.518021
23515	7165576	-0.170915	0.131125	-9.813543	-0.008124	-0.002311	-0.003861			
23516	7165601	-0.176376	0.147058	-9.806816	-0.004427	0.000477	-0.000130			
23517	7165626	-0.153981	0.185492	-9.820827	-0.005411	-0.002643	0.001262			
23518	7165651	-0.173687	0.161538	-9.816415	-0.008705	-0.004262	-0.003931	179.806107	0.949065	-89.518112
23519	7165676	-0.173233	0.160873	-9.803947	-0.008550	-0.000635	-0.001673			
23520	7165701	-0.158237	0.143198	-9.814572	-0.012590	-0.004776	-0.002320			
23521	7165726	-0.163034	0.148768	-9.812626	-0.008808	-0.000831	-0.002633			
23522	7165751	-0.170759	0.168968	-9.838955	-0.003168	-0.000666	0.001904	179.803696	0.949814	-89.518471
23523	7165776	-0.171584	0.155462	-9.825049	-0.005874	0.001937	-0.000189			
23524	7165801	-0.172200	0.172351	-9.843746	-0.005779	-0.001496	-0.002515			
23525	7165826	-0.158141	0.147284	-9.839979	-0.004439	-0.003533	-0.001951			
23526	7165851	-0.164406	0.149346	-9.823166	-0.002898	-0.001177	0.002284	179.803284	0.950183	-89.519196
23527	7165876	-0.157752	0.153301	-9.830868	-0.001618	0.000653	-0.000398			
23528	7165901	-0.137764	0.151184	-9.823778	-0.009596	-0.000207	-0.002432			
23529	7165926	-0.147384	0.171795	-9.850099	-0.007181	-0.001843	-0.003794			
23530	7165951	-0.172862	0.130446	-9.806335	-0.001021	0.000146	0.000496	179.802826	0.950122	-89.519348
23531	7165976	-0.168757	0.146592	-9.804444	-0.003251	-0.000353	-0.003800			
23532	7166001	-0.149373	0.136592	-9.843371	-0.004697	-0.001338	-0.001049			
23533	7166026	-0.169666	0.156619	-9.838960	-0.004049	-0.001922	-0.005403			
23534	7166051	-0.161484	0.148646	-9.839961	-0.002363	-0.004467	-0.002344	179.803085	0.951043	-89.518547
23535	7166076	-0.183932	0.139996	-9.811558	-0.009407	-0.002328	-0.002569			
23536	7166101	-0.160205	0.154493	-9.814559	-0.006033	0.002505	-0.003771			
23537	7166126	-0.171595	0.157963	-9.834151	-0.003593	0.000288	-0.001159			
23538	7166151	-0.166371	0.165510	-9.854789	-0.010160	-0.000334	-0.000058	179.801239	0.950785	-89.518478
23539	7166176	-0.170354	0.162818	-9.810671	-0.006630	-0.000663	0.000373			
23540	7166201	-0.153365	0.151992	-9.834725	-0.002247	0.004318	-0.002559			
23541	7166226	-0.156861	0.153175	-9.816496	-0.007434	0.002487	-0.001396			
23542	7166251	-0.152577	0.155820	-9.834255	-0.004928	-0.006318	-0.000875	179.800507	0.950569	-89.518906
23543	7166276	-0.175791	0.139504	-9.813523	0.000171	-0.001587	-0.004834			
23544	7166301	-0.159694	0.156161	-9.830378	-0.003515	-0.000024	-0.000390			
23545	7166326	-0.166652	0.172972	-9.821722	-0.003649	-0.002037	-0.002134			
23546	7166351	-0.158462	0.162452	-9.807860	-0.002007	0.000446	-0.004627	179.801544	0.950790	-89.518295
23547	7166376	-0.175529	0.165261	-9.821678	-0.000766	0.002219	0.000317			
23548	7166401	-0.170447	0.129626	-9.808270	-0.005768	0.000189	-0.000967			
23549	7166426	-0.150952	0.142040	-9.835694	-0.001359	-0.003941	-0.003883			
23550	7166451	-0.195554	0.161793	-9.821096	-0.006968	-0.000547	-0.004041	179.801743	0.950849	-89.518089
23551	7166476	-0.180204	0.150386	-9.806791	-0.009206	0.001480	-0.004353			
23552	7166501	-0.189779	0.164703	-9.823518	-0.005622	0.003348	-0.006780			
23553	7166526	-0.161666	0.166167	-9.838038	-0.000286	0.001197	0.000624			
23554	7166551	-0.160090	0.156349	-9.843806	-0.005098	-0.000639	-0.000782	179.801178	0.949839	-89.517502
23555	7166576	-0.165174	0.171110	-9.816458	-0.009419	0.000381	-0.003332			
23556	7166601	-0.172493	0.156002	-9.832228	-0.002892	0.002567	-0.001602			
23557	7166626	-0.153673	0.166463	-9.816515	-0.004426	0.002015	-0.005768			
23558	7166651	-0.184465	0.154963	-9.836009	-0.003839	-0.004561	-0.004455	179.800568	0.949546	-89.516327
23559	7166676	-0.189146	0.163829	-9.770324	-0.000511	0.004089	-0.002691			
23560	7166701	-0.190221	0.158483	-9.820164	-0.003895	0.004171	0.000335			
23561	7166726	-0.177265	0.154556	-9.834604	-0.004907	-0.000511	-0.000970			
23562	7166751	-0.166200	0.171470	-9.815499	-0.003384	-0.002350	0.000042	179.801056	0.948531	-89.516884
23563	7166776	-0.164906	0.142494	-9.809741	-0.004281	-0.002308	-0.002266			
23564	7166801	-0.184996	0.157098	-9.820674	-0.003399	0.000031	-0.004885			
23565	7166826	-0.180393	0.175374	-9.833629	0.000465	0.001270	-0.002389			
23566	7166851	-0.150320	0.131652	-9.828505	-0.010091	0.001340	-0.000566	179.800903	0.948245	-89.516426
23567	7166876	-0.180600	0.134492	-9.794800	-0.005622	-0.000386	-0.001095			
23568	7166901	-0.164150	0.160030	-9.806876	-0.004975	-0.000185	0.000438			
23569	7166926	-0.159297	0.166239	-9.837095	-0.006066	0.002198	0.003856			
23570	7166951	-0.140703	0.158771	-9.828570	-0.006668	-0.001700	-0.001365	179.799866	0.948011	-89.517677
23571	7166976	-0.171938	0.141763	-9.829834	-0.002871	-0.004472	-0.000036			
23572	7167001	-0.174412	0.148738	-9.818801	-0.008108	0.001179	-0.004989			
23573	7167026	-0.178568	0.173934	-9.828377	-0.006117	-0.006729	0.000602			
23574	7167051	-0.168139	0.131022	-9.809724	-0.000487	-0.005077	-0.001588	179.799667	0.949933	-89.517853
23575	7167076	-0.187275	0.133387	-9.792850	-0.002098	-0.002331	-0.000413			
23576	7167101	-0.177112	0.171232	-9.806328	-0.005387	0.002590	-0.001660			
23577	7167126	-0.177688	0.181061	-9.827418	-0.006576	-0.002667	-0.001234			
23578	7167151	-0.156169	0.172372	-9.827053	-0.011556	-0.005414	-0.006174	179.798325	0.950815	-89.517502
23579	7167176	-0.188910	0.146106	-9.789495	-0.000894	-0.004311	-0.002284			
23580	7167201	-0.156179	0.148738	-9.840947	-0.003128	0.002053	0.001605			
23581	7167226	-0.189419	0.174765	-9.831674	-0.001904	0.003617	-0.002365			
23582	7167251	-0.171107	0.188925	-9.810680	-0.003773	0.004165	-0.002040	179.799240	0.949782	-89.517830
23583	7167276	-0.173522	0.148659	-9.818326	-0.004749	-0.001071	0.003389			
23584	7167301	-0.175849	0.156997	-9.832701	-0.008421	-0.000632	-0.000325			
23585	7167326	-0.166397	0.162310	-9.833221	-0.006537	0.002699	0.000975			
23586	7167351	-0.165422	0.161897	-9.838984	-0.003435	0.000997	-0.005646	179.798248	0.949254	-89.518593
23587	7167376	-0.182081	0.141803	-9.811089	-0.004779	-0.002697	-0.000979			
23588	7167401	-0.187280	0.153470	-9.828815	-0.007311	-0.001520	-0.000909			
23589	7167426	-0.173071	0.170410	-9.844690	-0.003953	0.003576	-0.003836			
23590	7167451	-0.183290	0.182556	-9.838885	-0.001730	0.002003	-0.003591	179.798004	0.948820	-89.518280
23591	7167476	-0.175074	0.159070	-9.819755	-0.002055	-0.003548	0.001444			
23592	7167501	-0.158919	0.153333	-9.795877	-0.009315	-0.001170	-0.005002			
23593	7167526	-0.173370	0.183117	-9.834637	-0.006334	-0.002278	-0.003476			
23594	7167551	-0.167712	0.143514	-9.816914	-0.002879	-0.000283	-0.003348	179.797394	0.949624	-89.517822
23595	7167576	-0.162020	0.141401	-9.801604	0.000118	0.002158	-0.005463			
23596	7167601	-0.165211	0.168733	-9.817901	-0.004575	-0.005277	-0.000870			
23597	7167626	-0.155204	0.150143	-9.838068	-0.002676	0.003727	-0.003588			
23598	7167651	-0.179318	0.163492	-9.826454	-0.007896	0.000866	-0.001018	179.797577	0.949175	-89.517288
23599	7167676	-0.198337	0.161471	-9.833545	-0.008866	-0.005159	-0.001882			
23600	7167701	-0.165702	0.150181	-9.847133	-0.005414	0.000967	-0.002369			
23601	7167726	-0.153169	0.161229	-9.817963	-0.003701	-0.000755	-0.006559			
23602	7167751	-0.167157	0.165234	-9.805423	-0.008526	-0.006066	-0.004840	179.796112	0.950516	-89.516060
23603	7167776	-0.183137	0.146361	-9.794792	-0.008674	-0.001223	-0.003721			
23604	7167801	-0.195791	0.164177	-9.857517	-0.003728	0.002615	-0.000638			
23605	7167826	-0.173507	0.171527	-9.854757	-0.001802	0.002518	-0.000322			
23606	7167851	-0.172375	0.168993	-9.808752	-0.006214	0.000115	-0.003847	179.795517	0.949700	-89.515869
23607	7167876	-0.178799	0.153789	-9.815906	-0.006048	0.000693	-0.005576			
23608	7167901	-0.188224	0.185103	-9.820660	-0.006570	-0.002597	0.000304			
23609	7167926	-0.148318	0.151596	-9.802633	-0.003074	0.004241	-0.000377			
23610	7167951	-0.177579	0.158842	-9.798659	-0.009048	-0.003351	0.000307	179.794281	0.949604	-89.516113
23611	7167976	-0.169087	0.163546	-9.793910	-0.005552	-0.002852	-0.004636			
23612	7168001	-0.174273	0.137728	-9.821677	-0.000510	0.001696	-0.002576			
23613	7168026	-0.170655	0.149715	-9.820262	-0.004134	-0.002946	-0.000478			
23614	7168051	-0.161676	0.159328	-9.823654	-0.002919	-0.000863	-0.002326	179.794724	0.950076	-89.515755
23615	7168076	-0.202137	0.163376	-9.840718	-0.004606	-0.001927	-0.000849			
23616	7168101	-0.190310	0.159629	-9.805298	-0.002323	0.002767	-0.002182			
23617	7168126	-0.175238	0.164049	-9.799150	-0.005764	-0.001487	0.001399			
23618	7168151	-0.158400	0.159637	-9.810255	-0.004080	-0.000492	-0.002325	179.794632	0.949997	-89.516197
23619	7168176	-0.182695	0.154194	-9.811570	-0.004350	-0.004572	-0.004716			
23620	7168201	-0.175995	0.164359	-9.825020	-0.003904	0.000030	-0.002064			
23621	7168226	-0.143805	0.141181	-9.830938	-0.002037	-0.002520	-0.001317			
23622	7168251	-0.156826	0.145078	-9.820804	-0.001043	-0.005803	-0.002740	179.795334	0.951601	-89.515694
23623	7168276	-0.176410	0.153930	-9.818317	-0.009555	-0.001560	-0.003272			
23624	7168301	-0.175278	0.179562	-9.824079	-0.000668	-0.001340	-0.002399			
23625	7168326	-0.168074	0.178784	-9.827468	-0.005837	0.000703	-0.000322			
23626	7168351	-0.185571	0.153033	-9.800055	-0.007747	-0.001849	-0.001162	179.794235	0.951940	-89.515625
23627	7168376	-0.179595	0.136951	-9.801513	-0.004821	0.002724	-0.002941			
23628	7168401	-0.180988	0.178375	-9.811586	-0.004503	0.002992	-0.001723			
23629	7168426	-0.168824	0.163198	-9.833692	-0.004174	-0.001653	-0.001943			
23630	7168451	-0.196679	0.177063	-9.828770	-0.007156	-0.004621	-0.002590	179.793610	0.951780	-89.515343
23631	7168476	-0.163293	0.140950	-9.830353	-0.007100	-0.000019	0.001854			
23632	7168501	-0.178205	0.155983	-9.837474	0.000998	0.002764	-0.003086			
23633	7168526	-0.156623	0.143419	-9.831834	-0.003313	0.003850	0.001039			
23634	7168551	-0.168581	0.143407	-9.840878	-0.007477	-0.002424	-0.001934	179.793488	0.950940	-89.516068
23635	7168576	-0.162465	0.141715	-9.817425	-0.002418	-0.002658	-0.002341			
23636	7168601	-0.164576	0.153921	-9.815494	-0.001852	-0.004196	0.000863			
23637	7168626	-0.182039	0.155854	-9.829305	-0.003400	0.000492	-0.001168			
23638	7168651	-0.191589	0.187867	-9.822075	-0.001609	-0.001347	0.002991	179.794464	0.951800	-89.517197
23639	7168676	-0.197955	0.161756	-9.824923	-0.003119	-0.003332	-0.007974			
23640	7168701	-0.187853	0.161380	-9.824485	-0.002752	0.002114	-0.002696			
23641	7168726	-0.163016	0.154113	-9.822212	-0.006230	0.003223	0.002065			
23642	7168751	-0.183619	0.162909	-9.825948	-0.004554	-0.001726	-0.001428	179.794403	0.951520	-89.516785
23643	7168776	-0.173038	0.147994	-9.803951	-0.004245	0.002731	-0.003071			
23644	7168801	-0.171223	0.159638	-9.822649	0.000988	-0.001054	-0.002466			
23645	7168826	-0.168413	0.165904	-9.825061	-0.002408	-0.000520	0.001518			
23646	7168851	-0.138882	0.151550	-9.793096	-0.003155	0.000621	-0.000657	179.795441	0.951023	-89.517143
23647	7168876	-0.160795	0.156289	-9.805444	-0.007512	0.001006	0.000134			
23648	7168901	-0.169070	0.141148	-9.822182	-0.002179	-0.001952	-0.003426			
23649	7168926	-0.156418	0.166957	-9.848615	-0.006537	-0.002027	-0.003925			
23650	7168951	-0.165472	0.147241	-9.808781	-0.006571	-0.002795	-0.001363	179.794495	0.951609	-89.516930
23651	7168976	-0.192504	0.143753	-9.821579	-0.004581	-0.003083	-0.001754			
23652	7169001	-0.186824	0.142196	-9.808668	-0.005768	-0.001879	-0.001942			
23653	7169026	-0.154695	0.139589	-9.831362	-0.001970	-0.000380	0.001067			
23654	7169051	-0.172553	0.144614	-9.799642	-0.005147	0.003044	-0.000441	179.794312	0.951694	-89.517555
23655	7169076	-0.154192	0.132386	-9.821781	-0.008018	-0.001663	-0.004886			
23656	7169101	-0.165253	0.134524	-9.814533	-0.006902	-0.002408	0.000435			
23657	7169126	-0.167773	0.166849	-9.851905	-0.007440	-0.001581	-0.001550			
23658	7169151	-0.179151	0.151638	-9.829800	-0.003347	0.000618	-0.001994	179.792938	0.952175	-89.517448
23659	7169176	-0.164359	0.148081	-9.837548	-0.000051	-0.004958	-0.005491			
23660	7169201	-0.179413	0.155391	-9.799123	-0.000563	-0.000362	-0.001106			
23661	7169226	-0.168902	0.165016	-9.826504	-0.003470	-0.001454	-0.001882			
23662	7169251	-0.168789	0.155898	-9.819797	-0.007950	0.000079	-0.006156	179.793564	0.952897	-89.516396
23663	7169276	-0.174288	0.142885	-9.839893	-0.008814	-0.004971	-0.003806			
23664	7169301	-0.149456	0.130072	-9.824202	-0.004713	-0.004762	0.000286			
23665	7169326	-0.163082	0.159111	-9.834689	-0.010990	-0.004742	-0.000273			
23666	7169351	-0.159779	0.152519	-9.805449	-0.009429	-0.001493	-0.004494	179.791000	0.954943	-89.516312
23667	7169376	-0.172527	0.145660	-9.810180	-0.001444	0.000975	-0.003348			
23668	7169401	-0.198786	0.191567	-9.821563	-0.003193	-0.000553	-0.005783			
23669	7169426	-0.165764	0.139867	-9.822675	-0.006275	-0.004022	-0.001311			
23670	7169451	-0.160170	0.137961	-9.791074	-0.005643	-0.001685	-0.002776	179.790970	0.955463	-89.515388
23671	7169476	-0.184916	0.145104	-9.807239	-0.006433	0.001283	-0.000249			
23672	7169501	-0.174544	0.169947	-9.846121	-0.001341	-0.000122	-0.001684			
23673	7169526	-0.171485	0.163494	-9.853333	-0.007124	0.005406	0.004132			
23674	7169551	-0.176643	0.166657	-9.811604	-0.008097	-0.004824	0.000487	179.789963	0.954967	-89.516724
23675	7169576	-0.169374	0.152753	-9.802042	-0.005043	-0.000313	-0.000520			
23676	7169601	-0.144536	0.127901	-9.835241	-0.002702	-0.001490	0.002091			
23677	7169626	-0.139250	0.160802	-9.836229	-0.005874	-0.002664	-0.003745			
23678	7169651	-0.158255	0.154187	-9.823195	-0.005934	-0.000651	-0.002383	179.789474	0.955458	-89.517143
23679	7169676	-0.196096	0.128064	-9.822525	-0.007002	-0.003456	-0.003162			
23680	7169701	-0.179092	0.143386	-9.818297	-0.002559	0.001852	-0.004044			
23681	7169726	-0.178277	0.160112	-9.825500	-0.003630	0.005253	-0.007868			
23682	7169751	-0.146539	0.134543	-9.831402	-0.006774	-0.000678	-0.006677	179.788971	0.954798	-89.515091
23683	7169776	-0.172796	0.144187	-9.835100	-0.004297	0.004542	-0.001909			
23684	7169801	-0.180548	0.154326	-9.850885	-0.005786	-0.003561	-0.002971			
23685	7169826	-0.161277	0.181628	-9.849063	-0.009996	0.002505	-0.002289			
23686	7169851	-0.172601	0.159247	-9.828857	-0.005868	0.001542	0.000581	179.787567	0.953836	-89.515144
23687	7169876	-0.187328	0.134124	-9.800410	-0.004500	0.002849	-0.002745			
23688	7169901	-0.174233	0.170163	-9.849384	-0.003801	-0.003473	-0.001629			
23689	7169926	-0.160805	0.166969	-9.847532	-0.001879	-0.001107	-0.000151			
23690	7169951	-0.174438	0.173810	-9.810083	-0.004092	0.001818	-0.003713	179.787827	0.953583	-89.515007
23691	7169976	-0.153330	0.134065	-9.836054	0.001076	-0.001775	-0.003882			
23692	7170001	-0.187603	0.161385	-9.816241	0.000229	0.000867	-0.002444			
23693	7170026	-0.178171	0.135262	-9.834978	-0.003451	-0.004177	0.000414			
23694	7170051	-0.193693	0.158318	-9.834417	-0.004925	-0.002003	-0.000395	179.789139	0.954356	-89.515152
23695	7170076	-0.160609	0.135600	-9.819245	0.000995	-0.001125	-0.000602			
23696	7170101	-0.170026	0.163058	-9.816816	-0.003311	-0.002557	-0.000471			
23697	7170126	-0.150632	0.152967	-9.850458	-0.004563	-0.001612	-0.003164			
23698	7170151	-0.188058	0.179538	-9.854101	-0.004221	0.002210	-0.000700	179.789856	0.954556	-89.515419
23699	7170176	-0.173790	0.161675	-9.820625	-0.007001	-0.001462	-0.002570			
23700	7170201	-0.167002	0.169925	-9.859487	-0.005999	-0.002675	-0.002836			
23701	7170226	-0.184106	0.196377	-9.835439	-0.003228	-0.000742	0.002868			
23702	7170251	-0.196205	0.168596	-9.827230	-0.004137	-0.000831	-0.003664	179.789261	0.955132	-89.515511
23703	7170276	-0.195940	0.140031	-9.816672	-0.009292	-0.001754	-0.000191			
23704	7170301	-0.170430	0.164020	-9.818727	-0.002173	0.002316	0.001346			
23705	7170326	-0.191037	0.178574	-9.821975	-0.007069	0.004993	-0.004393			
23706	7170351	-0.179226	0.161111	-9.789923	-0.004846	-0.002259	0.001268	179.788208	0.954416	-89.516235
23707	7170376	-0.181490	0.159391	-9.798052	-0.010806	-0.000229	0.000137			
23708	7170401	-0.180863	0.162052	-9.823460	-0.002708	0.002553	-0.003973			
23709	7170426	-0.159484	0.159944	-9.822140	-0.002241	-0.002155	-0.002141			
23710	7170451	-0.149230	0.133885	-9.814033	-0.007328	-0.003073	0.000241	179.787216	0.954589	-89.516418
23711	7170476	-0.182359	0.161598	-9.820100	-0.006913	-0.001648	0.001404			
23712	7170501	-0.177322	0.148412	-9.827310	-0.002761	0.002755	0.000516			
23713	7170526	-0.162919	0.142226	-9.843692	-0.004278	-0.002451	-0.002526			
23714	7170551	-0.196984	0.150370	-9.811876	-0.008555	0.003353	-0.004399	179.786285	0.954059	-89.516785
23715	7170576	-0.173780	0.128527	-9.823004	-0.008340	0.000650	-0.001986			
23716	7170601	-0.160814	0.153409	-9.827873	-0.006545	-0.001708	-0.002442			
23717	7170626	-0.159588	0.132938	-9.823564	-0.004719	-0.002715	-0.003035			
23718	7170651	-0.181071	0.170891	-9.807643	-0.009166	0.002770	-0.000234	179.784485	0.953961	-89.516655
23719	7170676	-0.179119	0.171035	-9.820122	-0.000492	0.001432	-0.001678			
23720	7170701	-0.165597	0.153779	-9.826890	-0.003296	-0.002614	0.003119			
23721	7170726	-0.178204	0.159813	-9.797594	-0.004224	-0.002062	-0.002645			
23722	7170751	-0.202712	0.157277	-9.831013	-0.010073	-0.001118	0.002117	179.784195	0.954340	-89.517830
23723	7170776	-0.196778	0.163480	-9.803250	-0.004962	-0.002906	0.000685			
23724	7170801	-0.168679	0.179561	-9.840784	-0.002104	-0.002739	-0.004643			
23725	7170826	-0.152921	0.140881	-9.841333	-0.004828	-0.000969	0.000882			
23726	7170851	-0.179094	0.164698	-9.804300	-0.006576	0.001515	-0.003585	179.783859	0.954829	-89.517853
23727	7170876	-0.176127	0.157745	-9.816294	-0.005673	0.003605	-0.001071			
23728	7170901	-0.185647	0.159284	-9.829195	-0.005452	-0.005692	0.000288			
23729	7170926	-0.176867	0.191769	-9.840745	-0.001103	0.000647	0.000183			
23730	7170951	-0.158983	0.163519	-9.833160	-0.007267	-0.000945	-0.000772	179.783371	0.954925	-89.518707
23731	7170976	-0.175564	0.146732	-9.811025	-0.001399	-0.002335	-0.002015			
23732	7171001	-0.178967	0.174465	-9.857033	-0.001790	-0.002077	-0.000153			
23733	7171026	-0.152044	0.143518	-9.829353	-0.002259	0.000761	0.000887			
23734	7171051	-0.181237	0.171555	-9.790394	-0.004217	-0.002056	-0.001688	179.784286	0.955499	-89.519310
23735	7171076	-0.165750	0.161584	-9.807720	-0.005884	-0.002016	0.000817			
23736	7171101	-0.147814	0.154201	-9.840880	-0.005208	0.001167	0.002757			
23737	7171126	-0.171178	0.151241	-9.823503	-0.000237	0.003637	0.000446			
23738	7171151	-0.167177	0.128166	-9.824958	-0.007646	-0.002882	0.003578	179.783844	0.955263	-89.521423
23739	7171176	-0.183209	0.153075	-9.823444	-0.005580	-0.001957	-0.004371			
23740	7171201	-0.185014	0.148659	-9.821993	-0.000212	0.000922	-0.000465			
23741	7171226	-0.169874	0.166377	-9.845570	-0.007224	-0.000440	-0.004813			
23742	7171251	-0.171798	0.156964	-9.819672	-0.007141	-0.000885	-0.003536	179.783279	0.955362	-89.520554
23743	7171276	-0.166811	0.143908	-9.833114	-0.004159	-0.000450	-0.006227			
23744	7171301	-0.167009	0.163844	-9.836465	-0.003715	0.002746	0.002889			
23745	7171326	-0.180073	0.172050	-9.821074	-0.005367	0.004059	0.000213			
23746	7171351	-0.172412	0.162012	-9.810569	-0.006980	-0.002310	-0.007515	179.782715	0.954543	-89.520081
23747	7171376	-0.180363	0.155002	-9.823951	-0.005823	-0.002143	0.000051			
23748	7171401	-0.177390	0.157556	-9.835947	-0.005217	0.003156	-0.001141			
23749	7171426	-0.138043	0.157749	-9.815054	-0.003667	0.000601	-0.002761			
23750	7171451	-0.161194	0.140743	-9.807746	-0.003918	0.000334	-0.004305	179.782364	0.954022	-89.519943
23751	7171476	-0.184733	0.162389	-9.816254	-0.003219	0.003137	0.001162			
23752	7171501	-0.165099	0.162881	-9.834571	-0.001661	0.001930	-0.000390			
23753	7171526	-0.181489	0.173028	-9.824894	-0.003277	0.000347	-0.002381			
23754	7171551	-0.178101	0.155738	-9.804304	-0.012285	-0.000069	-0.001265	179.781723	0.953013	-89.520538
23755	7171576	-0.185241	0.154062	-9.799952	-0.002314	0.002174	-0.002755			
23756	7171601	-0.152047	0.152291	-9.843260	-0.003468	0.002609	-0.001217			
23757	7171626	-0.174832	0.164378	-9.813910	-0.002179	-0.001700	0.000042			
23758	7171651	-0.172413	0.134842	-9.835009	-0.003144	-0.001910	-0.003226	179.782455	0.952603	-89.520500
23759	7171676	-0.164815	0.139813	-9.842722	-0.003594	-0.001784	-0.000468			
23760	7171701	-0.151902	0.135320	-9.850928	-0.000572	-0.006907	-0.006406			
23761	7171726	-0.181024	0.174432	-9.824899	-0.006305	0.001068	-0.002436			
23762	7171751	-0.146454	0.144808	-9.817875	0.001191	-0.001581	-0.005224	179.783447	0.953683	-89.519463
23763	7171776	-0.169786	0.126139	-9.854673	-0.001910	-0.000535	-0.003542			
23764	7171801	-0.169457	0.163774	-9.831675	-0.006764	-0.002688	-0.002387			
23765	7171826	-0.162807	0.162338	-9.825473	-0.002703	-0.000037	-0.005840			
23766	7171851	-0.165730	0.159793	-9.813961	-0.007141	-0.001539	-0.007954	179.783142	0.954136	-89.517685
23767	7171876	-0.187182	0.181856	-9.847400	-0.005874	-0.000268	0.001596			
23768	7171901	-0.175648	0.161194	-9.823010	-0.003238	0.000861	-0.005387			
23769	7171926	-0.160099	0.129385	-9.808223	-0.003542	0.000273	-0.005265			
23770	7171951	-0.177489	0.168036	-9.773150	-0.006290	-0.001381	0.000246	179.782745	0.953968	-89.517380
23771	7171976	-0.152550	0.138572	-9.817361	-0.000665	-0.001352	-0.002271			
23772	7172001	-0.174479	0.158824	-9.854653	-0.003710	-0.002109	-0.000855			
23773	7172026	-0.171804	0.164863	-9.837408	-0.009136	-0.000657	-0.003077			
23774	7172051	-0.186107	0.161247	-9.832064	-0.007328	-0.001475	-0.006096	179.782089	0.954530	-89.516602
23775	7172076	-0.161761	0.152249	-9.818769	-0.000095	-0.001147	-0.003424			
23776	7172101	-0.179748	0.144057	-9.821066	-0.007033	-0.002302	-0.003091			
23777	7172126	-0.167072	0.158874	-9.817306	-0.006956	0.001714	-0.000566			
23778	7172151	-0.173975	0.172136	-9.822071	-0.007209	-0.006820	0.000028	179.781342	0.955513	-89.516640
23779	7172176	-0.186167	0.168286	-9.829192	-0.004852	0.001612	-0.003006			
23780	7172201	-0.190995	0.176375	-9.839706	0.001660	-0.002021	-0.004005			
23781	7172226	-0.189664	0.176755	-9.825340	-0.006478	0.000419	-0.001596			
23782	7172251	-0.130224	0.135931	-9.808378	-0.004500	-0.001414	-0.001167	179.781631	0.955474	-89.516342
23783	7172276	-0.167688	0.158883	-9.792847	0.000200	-0.000101	-0.000532			
23784	7172301	-0.169253	0.180309	-9.826878	-0.002168	-0.004545	-0.002410			
23785	7172326	-0.195064	0.177241	-9.800872	-0.005093	-0.002520	0.001137			
23786	7172351	-0.170701	0.136847	-9.809128	-0.006166	-0.001639	-0.003344	179.782043	0.956492	-89.516693
23787	7172376	-0.171778	0.147356	-9.815351	-0.005867	-0.002600	0.001206			
23788	7172401	-0.153749	0.166427	-9.837501	-0.003466	-0.000313	-0.008085			
23789	7172426	-0.174121	0.163409	-9.841231	-0.005981	0.001080	-0.001858			
23790	7172451	-0.165440	0.145136	-9.820186	-0.005290	0.001416	0.000320	179.781403	0.956310	-89.516586
23791	7172476	-0.182768	0.160729	-9.827765	-0.007239	-0.001782	0.000502			
23792	7172501	-0.172365	0.169572	-9.843638	-0.001344	-0.006273	-0.001584			
23793	7172526	-0.154160	0.155839	-9.826472	-0.005488	-0.002791	-0.003484			
23794	7172551	-0.168423	0.151216	-9.812495	-0.009201	0.001536	-0.001140	179.780380	0.957401	-89.516785
23795	7172576	-0.213215	0.152121	-9.820416	-0.002141	-0.003250	-0.002079			
23796	7172601	-0.170793	0.147933	-9.821597	-0.001757	-0.005373	-0.003058			
23797	7172626	-0.174972	0.140151	-9.811513	-0.005510	0.000182	-0.002824			
23798	7172651	-0.192660	0.160363	-9.841136	-0.007857	0.001693	-0.000051	179.780228	0.958125	-89.516602
23799	7172676	-0.161478	0.132059	-9.824512	-0.009406	0.000112	-0.000250			
23800	7172701	-0.190838	0.172894	-9.853607	-0.003143	0.002165	-0.002562			
23801	7172726	-0.183561	0.173111	-9.799968	-0.005946	0.001654	-0.003259			
23802	7172751	-0.170226	0.133543	-9.810087	-0.005127	-0.004144	-0.003102	179.779160	0.957915	-89.516342
23803	7172776	-0.181330	0.165963	-9.824901	-0.008558	0.005616	-0.002915			
23804	7172801	-0.163110	0.166204	-9.855671	-0.009529	-0.000085	-0.000061			
23805	7172826	-0.195276	0.179308	-9.844486	-0.004612	0.000069	-0.001669			
23806	7172851	-0.173109	0.152802	-9.830688	-0.004841	0.001486	0.000197	179.777512	0.956656	-89.516724
23807	7172876	-0.186232	0.148700	-9.789887	-0.001936	-0.003757	-0.001892			
23808	7172901	-0.178516	0.158577	-9.811496	-0.002226	0.001523	-0.004047			
23809	7172926	-0.152934	0.135962	-9.828869	-0.005648	-0.001037	0.004543			
23810	7172951	-0.167718	0.168798	-9.812024	-0.007710	0.000918	-0.001849	179.777298	0.956749	-89.517258
23811	7172976	-0.159569	0.136772	-9.827876	-0.003836	0.003888	-0.003321			
23812	7173001	-0.153342	0.168800	-9.835592	-0.004190	-0.003420	-0.005092			
23813	7173026	-0.172244	0.192582	-9.825919	-0.003192	-0.000362	-0.002956			
23814	7173051	-0.169862	0.143321	-9.799063	-0.002249	0.000438	0.000693	179.777695	0.956430	-89.516785
23815	7173076	-0.182743	0.163189	-9.836869	-0.000128	-0.001982	-0.000025			
23816	7173101	-0.181810	0.169518	-9.842626	-0.007391	0.001052	-0.000891			
23817	7173126	-0.152521	0.171428	-9.820739	-0.003646	-0.004508	-0.003880			
23818	7173151	-0.167917	0.151864	-9.824965	-0.007889	-0.001210	0.001791	179.777267	0.957138	-89.517372
23819	7173176	-0.159936	0.158100	-9.826448	-0.002366	-0.004083	0.000671			
23820	7173201	-0.174268	0.162676	-9.824464	-0.004743	-0.001745	-0.001173			
23821	7173226	-0.186348	0.176632	-9.817213	-0.003318	0.002363	0.002892			
23822	7173251	-0.179322	0.159361	-9.830666	-0.003734	0.004801	-0.001587	179.777527	0.956699	-89.518555
23823	7173276	-0.191204	0.158977	-9.843545	-0.005379	0.002055	-0.003068			
23824	7173301	-0.175580	0.166041	-9.860879	-0.005424	-0.007252	-0.006004			
23825	7173326	-0.165233	0.170466	-9.834091	-0.001921	-0.000480	-0.007264			
23826	7173351	-0.167568	0.160268	-9.818260	-0.002606	-0.000733	-0.002581	179.777664	0.957381	-89.516853
23827	7173376	-0.166721	0.130902	-9.820163	-0.003099	0.000934	-0.001030			
23828	7173401	-0.184449	0.144022	-9.821527	-0.006290	0.002816	0.000653			
23829	7173426	-0.159726	0.145431	-9.829792	-0.009342	-0.000343	-0.003134			
23830	7173451	-0.175155	0.165640	-9.833078	-0.004588	0.001425	-0.001283	179.776627	0.956445	-89.517227
23831	7173476	-0.195380	0.177623	-9.826758	-0.004908	-0.002711	-0.001235			
23832	7173501	-0.178596	0.163876	-9.814851	-0.003351	0.000869	0.000767			
23833	7173526	-0.190976	0.173120	-9.836838	-0.008334	-0.000204	-0.008261			
23834	7173551	-0.180739	0.144029	-9.820589	-0.005242	-0.002797	-0.007904	179.775833	0.956902	-89.515877
23835	7173576	-0.170279	0.145410	-9.814888	-0.001155	0.000200	0.000429			
23836	7173601	-0.148705	0.143606	-9.830337	-0.003900	0.000089	0.000630			
23837	7173626	-0.179935	0.159356	-9.827783	-0.005744	-0.002667	-0.001815			
23838	7173651	-0.173730	0.125209	-9.829240	-0.002880	0.000031	-0.002962	179.776184	0.956994	-89.516335
23839	7173676	-0.158411	0.155245	-9.825969	-0.000513	-0.000381	-0.005151			
23840	7173701	-0.156148	0.139120	-9.853302	-0.003591	-0.000246	-0.005011			
23841	7173726	-0.178098	0.173746	-9.835939	-0.004238	-0.000262	-0.010651			
23842	7173751	-0.192887	0.164666	-9.816692	-0.003588	-0.000177	-0.004622	179.776825	0.956913	-89.513779
23843	7173776	-0.184702	0.163912	-9.826321	0.001135	0.000355	-0.005400			
23844	7173801	-0.194932	0.181050	-9.834424	-0.004640	-0.002964	0.000302			
23845	7173826	-0.174997	0.178483	-9.806717	-0.001590	0.001800	-0.000006			
23846	7173851	-0.174840	0.154035	-9.787533	-0.006320	-0.000542	-0.002059	179.777496	0.956865	-89.513748
23847	7173876	-0.162979	0.137613	-9.823547	-0.003093	0.000677	-0.001992			
23848	7173901	-0.164074	0.155316	-9.832167	-0.003572	0.001700	-0.000322			
23849	7173926	-0.187104	0.152306	-9.810480	-0.002867	-0.002617	-0.002009			
23850	7173951	-0.163001	0.142517	-9.831699	-0.004998	-0.002138	-0.004312	179.777725	0.956964	-89.513626
23851	7173976	-0.182178	0.156216	-9.844544	-0.002967	-0.003852	-0.006248			
23852	7174001	-0.169308	0.156372	-9.839341	-0.006251	-0.000539	0.001021			
23853	7174026	-0.175492	0.174524	-9.794250	-0.003015	-0.001842	-0.002202			
23854	7174051	-0.174200	0.148027	-9.798567	-0.003944	0.000846	-0.006157	179.777740	0.957496	-89.512718
23855	7174076	-0.164022	0.159305	-9.777053	-0.010276	-0.001007	-0.002757			
23856	7174101	-0.165947	0.152537	-9.837434	-0.005186	-0.003947	-0.000092			
23857	7174126	-0.155527	0.157004	-9.838934	-0.008762	-0.002396	-0.002956			
23858	7174151	-0.160790	0.158285	-9.832181	-0.011338	0.000465	0.000335	179.774933	0.958239	-89.512947
23859	7174176	-0.156118	0.129888	-9.838443	-0.005041	0.001414	-0.002176			
23860	7174201	-0.182697	0.148144	-9.813391	-0.003274	-0.001587	-0.000213			
23861	7174226	-0.166575	0.157696	-9.832162	-0.007840	-0.005420	-0.005026			
23862	7174251	-0.173950	0.173915	-9.816800	-0.001855	-0.000349	-0.006746	179.774689	0.958852	-89.511940
23863	7174276	-0.193004	0.164027	-9.800392	-0.008689	-0.004922	-0.006559			
23864	7174301	-0.151007	0.167023	-9.812108	-0.005390	0.000371	-0.004625			
23865	7174326	-0.159729	0.146883	-9.832190	-0.005889	-0.000417	-0.005452			
23866	7174351	-0.182096	0.161739	-9.802374	-0.003761	-0.004761	-0.001249	179.773621	0.960008	-89.510353
23867	7174376	-0.165076	0.152415	-9.825458	-0.007509	-0.003210	0.000753			
23868	7174401	-0.176050	0.165120	-9.836425	0.000043	0.002658	-0.004625			
23869	7174426	-0.190974	0.176839	-9.834427	-0.002769	0.003079	0.002961			
23870	7174451	-0.198163	0.150721	-9.777353	-0.003682	0.000985	-0.004043	179.773941	0.959261	-89.510727
23871	7174476	-0.196357	0.138483	-9.814263	-0.000702	0.001946	-0.002760			
23872	7174501	-0.179525	0.171875	-9.842649	-0.002673	-0.002681	-0.003104			
23873	7174526	-0.171815	0.156609	-9.827348	-0.004794	-0.004524	-0.002918			
23874	7174551	-0.156245	0.130529	-9.820233	-0.003032	-0.001524	-0.004573	179.774658	0.959993	-89.509888
23875	7174576	-0.199413	0.150827	-9.814737	-0.004320	-0.001156	-0.002445			
23876	7174601	-0.183717	0.162563	-9.827763	-0.003760	0.001767	0.000836			
23877	7174626	-0.168529	0.165618	-9.824005	-0.008284	0.001103	-0.000249			
23878	7174651	-0.176280	0.157073	-9.802398	-0.003266	-0.003847	-0.000159	179.774139	0.960053	-89.510658
23879	7174676	-0.194056	0.152651	-9.836331	-0.004984	-0.002256	0.000754			
23880	7174701	-0.166071	0.165764	-9.837430	-0.002611	0.001717	-0.002569			
23881	7174726	-0.169470	0.165720	-9.831676	-0.007865	-0.000514	-0.003716			
23882	7174751	-0.175919	0.162082	-9.787062	-0.006098	-0.001509	-0.002640	179.773361	0.960178	-89.510483
23883	7174776	-0.189700	0.139071	-9.817659	-0.001195	-0.000380	0.003061			
23884	7174801	-0.187525	0.159136	-9.820554	-0.006159	0.000025	-0.009108			
23885	7174826	-0.144623	0.158433	-9.832278	-0.005531	-0.003505	-0.003937			
23886	7174851	-0.167935	0.147489	-9.814896	-0.011575	-0.000179	-0.000435	179.772171	0.960515	-89.510063
23887	7174876	-0.152424	0.131088	-9.821205	-0.005987	-0.000657	0.003068			
23888	7174901	-0.156404	0.154802	-9.848989	-0.008671	-0.003368	-0.004564			
23889	7174926	-0.164491	0.131595	-9.798130	-0.008522	-0.001679	-0.001612			
23890	7174951	-0.168616	0.127953	-9.816323	-0.004694	0.000313	-0.005518	179.770493	0.961045	-89.509842
23891	7174976	-0.147803	0.146459	-9.830342	-0.003839	-0.000243	-0.002512			
23892	7175001	-0.162842	0.176316	-9.839373	-0.006075	0.003849	-0.002933			
23893	7175026	-0.192931	0.183222	-9.850732	-0.003037	-0.003006	-0.000794			
23894	7175051	-0.161818	0.131825	-9.844647	-0.005959	0.000112	-0.000513	179.770096	0.960699	-89.509918
23895	7175076	-0.163624	0.152334	-9.823071	-0.004534	0.001422	-0.005187			
23896	7175101	-0.158604	0.178372	-9.843710	-0.006554	0.000675	-0.001793			
23897	7175126	-0.189391	0.199131	-9.834451	-0.001155	-0.000070	-0.002065			
23898	7175151	-0.206015	0.177177	-9.801771	-0.008333	-0.001352	0.000317	179.769440	0.960360	-89.509781
23899	7175176	-0.191387	0.156226	-9.826274	-0.000151	-0.007808	-0.003837			
23900	7175201	-0.174477	0.165587	-9.795692	-0.006288	-0.001320	0.000243			
23901	7175226	-0.154905	0.175220	-9.818811	-0.008540	-0.003302	-0.002837			
23902	7175251	-0.154305	0.160378	-9.814011	-0.005139	0.000510	-0.003077	179.768890	0.961826	-89.509415
23903	7175276	-0.179243	0.132795	-9.800446	-0.002988	0.001456	-0.000131			
23904	7175301	-0.164879	0.158118	-9.858052	-0.007460	0.003381	-0.000879			
23905	7175326	-0.139813	0.139652	-9.813115	-0.003336	-0.005978	-0.001134			
23906	7175351	-0.162970	0.158020	-9.789523	-0.005288	-0.003053	-0.004767	179.768448	0.962183	-89.509483
23907	7175376	-0.186116	0.155616	-9.806655	-0.005816	0.001930	0.000393			
23908	7175401	-0.163337	0.150986	-9.862370	0.001110	0.003077	-0.003208			
23909	7175426	-0.159332	0.158328	-9.837954	-0.004655	-0.000577	-0.002259			
23910	7175451	-0.202199	0.153311	-9.827667	-0.001106	0.000449	-0.002767	179.769272	0.961242	-89.509415
23911	7175476	-0.184056	0.152819	-9.843092	-0.001544	-0.002410	-0.007203			
23912	7175501	-0.178180	0.171061	-9.816281	-0.003251	-0.000359	-0.002578			
23913	7175526	-0.152141	0.154503	-9.830318	-0.006440	0.003196	-0.004408			
23914	7175551	-0.162629	0.142707	-9.809646	-0.009546	0.000373	-0.001085	179.768616	0.960888	-89.508270
23915	7175576	-0.162238	0.148407	-9.815411	-0.002299	-0.002210	0.001000			
23916	7175601	-0.174396	0.145359	-9.840266	-0.004925	-0.000197	-0.000778			
23917	7175626	-0.163339	0.166117	-9.822115	-0.006491	-0.000933	0.001463			
23918	7175651	-0.184523	0.143944	-9.816250	-0.006400	-0.000359	-0.006159	179.768021	0.961173	-89.508659
23919	7175676	-0.176460	0.135194	-9.800467	-0.003369	-0.004882	-0.001188			
23920	7175701	-0.177648	0.163883	-9.815810	-0.003165	-0.000814	0.000049			
23921	7175726	-0.144170	0.154879	-9.817414	-0.004768	0.000900	-0.005324			
23922	7175751	-0.175507	0.162503	-9.782275	-0.004800	-0.004134	-0.002271	179.768036	0.962210	-89.508461
23923	7175776	-0.168279	0.144729	-9.828317	-0.001907	-0.000535	-0.004444			
23924	7175801	-0.151691	0.155544	-9.835115	-0.006133	-0.000545	-0.004499			
23925	7175826	-0.182737	0.172526	-9.856532	-0.005092	-0.000779	-0.000140			
23926	7175851	-0.172886	0.150253	-9.789471	-0.002319	-0.001767	-0.003098	179.768143	0.962488	-89.507782
23927	7175876	-0.178099	0.149343	-9.791353	-0.007032	-0.000431	-0.003460			
23928	7175901	-0.186450	0.161939	-9.846441	-0.007007	0.003128	-0.000046			
23929	7175926	-0.171100	0.176447	-9.822072	-0.005835	-0.003570	-0.000858			
23930	7175951	-0.186540	0.159280	-9.831582	-0.001705	-0.002918	-0.003108	179.767365	0.962788	-89.507729
23931	7175976	-0.193025	0.162990	-9.797518	-0.002809	-0.000483	-0.003473			
23932	7176001	-0.172825	0.185095	-9.863292	-0.003625	0.001444	-0.002180			
23933	7176026	-0.182895	0.170766	-9.832093	-0.006771	-0.000618	-0.002308			
23934	7176051	-0.195282	0.132548	-9.826258	-0.005136	-0.001623	-0.002900	179.767044	0.962730	-89.507263
23935	7176076	-0.164617	0.124613	-9.842705	-0.002182	-0.000416	-0.007193			
23936	7176101	-0.163711	0.171162	-9.846078	-0.002766	0.000487	-0.001939			
23937	7176126	-0.196692	0.173525	-9.840640	-0.004995	-0.001812	-0.000395			
23938	7176151	-0.192504	0.168845	-9.812384	0.000323	-0.002106	-0.001763	179.767990	0.963040	-89.506584
23939	7176176	-0.168234	0.137960	-9.817773	-0.004372	0.002459	-0.002943			
23940	7176201	-0.159804	0.150022	-9.825490	-0.002088	-0.003053	-0.002080			
23941	7176226	-0.165356	0.173204	-9.828338	-0.000784	-0.006209	-0.007293			
23942	7176251	-0.182404	0.158003	-9.804283	-0.004265	-0.000761	-0.001554	179.768661	0.963884	-89.505623
23943	7176276	-0.171702	0.148383	-9.819667	-0.003707	0.000484	0.003844			
23944	7176301	-0.196478	0.203128	-9.853586	-0.003952	-0.002310	-0.000657			
23945	7176326	-0.199324	0.174472	-9.810439	-0.003894	-0.002833	-0.005724			
23946	7176351	-0.202889	0.167564	-9.821440	-0.009868	-0.001699	-0.000770	179.767883	0.964549	-89.506126
23947	7176376	-0.184097	0.147293	-9.821531	-0.006293	-0.001517	-0.002314			
23948	7176401	-0.161369	0.169767	-9.846086	-0.000349	-0.001471	-0.003165			
23949	7176426	-0.158203	0.181570	-9.834607	-0.007926	-0.002582	-0.004950			
23950	7176451	-0.179147	0.167761	-9.820118	-0.005487	-0.002398	0.000757	179.767334	0.965449	-89.505707
23951	7176476	-0.171607	0.171010	-9.810094	-0.001812	-0.002974	0.004201			
23952	7176501	-0.179628	0.173924	-9.818205	-0.008143	0.000595	0.000645			
23953	7176526	-0.158341	0.150218	-9.832200	-0.008172	-0.000970	-0.004360			
23954	7176551	-0.197278	0.167313	-9.802779	-0.006907	0.000036	0.000513	179.766037	0.965675	-89.506821
23955	7176576	-0.177203	0.129753	-9.818207	-0.002952	0.000094	-0.002573			
23956	7176601	-0.159809	0.162634	-9.842257	-0.004488	0.002331	-0.001788			
23957	7176626	-0.188614	0.165786	-9.818634	-0.008419	-0.001171	-0.006029			
23958	7176651	-0.179916	0.157667	-9.809087	-0.009020	0.004390	0.000992	179.764771	0.964624	-89.506493
23959	7176676	-0.170120	0.180915	-9.838383	-0.002323	-0.001512	-0.001556			
23960	7176701	-0.180395	0.134917	-9.845030	-0.004499	0.002655	-0.002876			
23961	7176726	-0.173219	0.168257	-9.845540	-0.005838	0.000235	-0.003596			
23962	7176751	-0.178763	0.136291	-9.809564	-0.004849	-0.000584	-0.002253	179.764572	0.964269	-89.506111
23963	7176776	-0.176424	0.173204	-9.803364	-0.002930	-0.002620	-0.004193			
23964	7176801	-0.190452	0.176142	-9.849779	-0.004679	-0.000268	-0.006929			
23965	7176826	-0.178222	0.184247	-9.840253	-0.007221	-0.000566	-0.004554			
23966	7176851	-0.172871	0.150550	-9.805281	-0.006866	-0.005785	-0.002146	179.763794	0.965355	-89.504578
23967	7176876	-0.170786	0.162844	-9.833102	-0.005072	0.002442	-0.003713			
23968	7176901	-0.144541	0.160006	-9.842346	-0.007665	0.003695	-0.002222			
23969	7176926	-0.173636	0.155115	-9.828292	-0.003931	0.000720	-0.003213			
23970	7176951	-0.190862	0.149363	-9.809023	0.000757	0.000621	0.001076	179.763840	0.964040	-89.504463
23971	7176976	-0.167097	0.152617	-9.812507	-0.002915	-0.002944	-0.001824			
23972	7177001	-0.167491	0.156096	-9.824499	-0.003576	-0.002436	-0.003548			
23973	7177026	-0.169628	0.163944	-9.809144	-0.006172	-0.003321	-0.003031			
23974	7177051	-0.159492	0.130065	-9.824043	-0.001569	0.000957	-0.003603	179.764099	0.964909	-89.503738
23975	7177076	-0.174934	0.137233	-9.808147	-0.004689	0.004449	-0.005431			
23976	7177101	-0.143886	0.140727	-9.824121	-0.002971	0.004873	-0.001973			
23977	7177126	-0.160161	0.132062	-9.795284	-0.006750	0.004801	-0.005810			
23978	7177151	-0.164626	0.136916	-9.803402	-0.009161	-0.006013	0.000039	179.763046	0.963506	-89.502960
23979	7177176	-0.170094	0.175551	-9.826395	-0.003724	-0.003460	0.002535			
23980	7177201	-0.193643	0.190475	-9.824363	-0.008194	0.001806	-0.004855			
23981	7177226	-0.147213	0.142894	-9.841845	-0.006510	-0.000747	-0.003794			
23982	7177251	-0.157543	0.151272	-9.812077	-0.005949	-0.004414	-0.003104	179.761871	0.964240	-89.502678
23983	7177276	-0.157799	0.144908	-9.829330	-0.004295	0.002135	-0.001597			
23984	7177301	-0.158972	0.166864	-9.837959	-0.004637	-0.000969	-0.000782			
23985	7177326	-0.198988	0.203747	-9.829608	-0.008929	0.002693	-0.008309			
23986	7177351	-0.189435	0.149436	-9.809032	-0.005005	-0.001882	-0.003923	179.760910	0.963717	-89.501671
23987	7177376	-0.162058	0.146415	-9.835538	-0.006916	-0.001849	-0.002448			
23988	7177401	-0.178951	0.156319	-9.818189	-0.004542	0.000212	0.003074			
23989	7177426	-0.157943	0.149928	-9.814945	-0.006087	-0.000031	-0.004557			
23990	7177451	-0.167119	0.155517	-9.815385	-0.006732	-0.004046	-0.004831	179.759735	0.964293	-89.501511
23991	7177476	-0.186656	0.158359	-9.802347	-0.003578	0.001629	-0.005513			
23992	7177501	-0.188035	0.171871	-9.851233	-0.002481	-0.002672	-0.001112			
23993	7177526	-0.190968	0.174028	-9.835875	-0.002739	0.001460	-0.002433			
23994	7177551	-0.189083	0.167331	-9.833971	-0.001161	-0.006208	-0.003956	179.760620	0.964882	-89.500717
23995	7177576	-0.139468	0.162697	-9.833745	-0.001793	-0.004481	-0.005293			
23996	7177601	-0.157023	0.164031	-9.836995	-0.002742	0.001322	-0.006735			
23997	7177626	-0.170699	0.160200	-9.848446	-0.001779	0.001602	-0.003082			
23998	7177651	-0.163458	0.136085	-9.816355	-0.002086	0.001077	-0.003853	179.761749	0.964713	-89.499031
23999	7177676	-0.179320	0.139424	-9.798544	-0.002335	0.001015	-0.002575			
24000	7177701	-0.163819	0.177800	-9.844642	-0.003317	-0.000097	0.001721			
24001	7177726	-0.157701	0.136920	-9.833155	-0.004931	-0.001679	0.000307			
24002	7177751	-0.176496	0.151999	-9.811019	-0.005946	0.003918	-0.002934	179.761688	0.964015	-89.499588
24003	7177776	-0.159278	0.159424	-9.848014	-0.006323	0.001389	-0.002621			
24004	7177801	-0.171018	0.182453	-9.842210	-0.003554	-0.000945	-0.002389			
24005	7177826	-0.158712	0.149858	-9.846096	-0.003211	-0.000046	-0.004371			
24006	7177851	-0.174627	0.155065	-9.823498	-0.004536	-0.002316	-0.001048	179.761475	0.964047	-89.499146
24007	7177876	-0.180178	0.143598	-9.822510	-0.006811	0.000603	-0.004937			
24008	7177901	-0.151005	0.166727	-9.823130	-0.002754	-0.002232	-0.003357			
24009	7177926	-0.177074	0.163783	-9.836426	-0.005750	-0.002804	-0.007004			
24010	7177951	-0.162037	0.150141	-9.839369	0.001505	0.000943	-0.004053	179.761826	0.964311	-89.497459
24011	7177976	-0.172009	0.141007	-9.835486	-0.003716	-0.000243	-0.004432			
24012	7178001	-0.164788	0.153984	-9.867637	-0.004953	0.000571	-0.004430			
24013	7178026	-0.181705	0.182853	-9.816757	-0.003561	-0.002685	-0.000665			
24014	7178051	-0.177573	0.146382	-9.788960	-0.000252	-0.000177	-0.002521	179.762360	0.964433	-89.496758
24015	7178076	-0.173598	0.145609	-9.826854	-0.003204	-0.004101	-0.000288			
24016	7178101	-0.174204	0.161674	-9.820616	-0.004970	0.003487	-0.000373			
24017	7178126	-0.155106	0.149884	-9.810172	-0.005564	0.001459	-0.007625			
24018	7178151	-0.185631	0.147465	-9.799465	-0.006503	-0.000870	-0.003533	179.761765	0.964196	-89.496025
24019	7178176	-0.174606	0.152210	-9.825890	-0.002867	-0.000681	-0.003858			
24020	7178201	-0.176765	0.152230	-9.857039	-0.003882	-0.000764	-0.002131			
24021	7178226	-0.183280	0.158182	-9.822015	-0.001147	-0.004394	-0.002280			
24022	7178251	-0.180876	0.141281	-9.797582	-0.003991	-0.003804	-0.004898	179.762390	0.965337	-89.495201
24023	7178276	-0.180983	0.165351	-9.818665	-0.004768	-0.003296	-0.004257			
24024	7178301	-0.157371	0.158377	-9.842758	-0.003795	0.000463	-0.005332			
24025	7178326	-0.170176	0.149743	-9.844604	-0.002363	-0.002342	-0.000922			
24026	7178351	-0.182059	0.169866	-9.802844	-0.008996	-0.000787	-0.003207	179.761856	0.965950	-89.494293
24027	7178376	-0.179045	0.164945	-9.824424	-0.002129	-0.000034	-0.008027			
24028	7178401	-0.149584	0.176376	-9.833208	-0.006114	-0.001127	-0.004116			
24029	7178426	-0.162793	0.152962	-9.806765	0.001721	0.000240	-0.003164			
24030	7178451	-0.178938	0.139372	-9.791348	-0.006272	0.000300	0.000133	179.762344	0.965800	-89.493103
24031	7178476	-0.191966	0.166977	-9.812861	-0.001277	-0.000067	-0.002770			
24032	7178501	-0.160430	0.163963	-9.832206	-0.008073	-0.001414	0.002050			
24033	7178526	-0.158220	0.167255	-9.802012	-0.003174	-0.000882	-0.004508			
24034	7178551	-0.168088	0.151903	-9.800993	-0.000043	-0.002758	-0.002216	179.762833	0.966289	-89.493088
24035	7178576	-0.184835	0.135007	-9.827272	0.000118	-0.001717	-0.001885			
24036	7178601	-0.170526	0.164519	-9.820161	-0.004315	-0.001083	-0.000075			
24037	7178626	-0.161483	0.142861	-9.852317	-0.005190	-0.002407	-0.005721			
24038	7178651	-0.198224	0.161449	-9.798930	-0.002079	-0.002792	0.000425	179.763504	0.967191	-89.493027
24039	7178676	-0.153465	0.141662	-9.830790	-0.003855	-0.001468	-0.000402			
24040	7178701	-0.147863	0.146417	-9.827934	-0.003593	-0.001988	-0.002651			
24041	7178726	-0.172400	0.164516	-9.820160	-0.005001	-0.002079	-0.006106			
24042	7178751	-0.165952	0.138043	-9.820654	-0.004050	-0.005600	0.000411	179.763443	0.968542	-89.492851
24043	7178776	-0.173268	0.153014	-9.813914	-0.001867	-0.003952	-0.003242			
24044	7178801	-0.145142	0.170519	-9.847615	-0.004521	-0.001095	-0.004505			
24045	7178826	-0.165389	0.178528	-9.825458	-0.011198	-0.000113	-0.001910			
24046	7178851	-0.181829	0.152507	-9.816260	-0.006931	-0.003585	-0.000851	179.762253	0.969552	-89.492371
24047	7178876	-0.198595	0.159447	-9.816188	-0.010109	-0.003839	0.000951			
24048	7178901	-0.175059	0.155015	-9.825409	0.000416	0.001000	-0.001745			
24049	7178926	-0.183039	0.180120	-9.826818	-0.003965	-0.002317	-0.003992			
24050	7178951	-0.198536	0.158184	-9.804204	0.001281	0.004631	0.000906	179.762772	0.969381	-89.492790
24051	7178976	-0.180538	0.139443	-9.831606	-0.005078	0.000706	-0.002822			
24052	7179001	-0.168374	0.157807	-9.838864	-0.008355	-0.000642	0.001793			
24053	7179026	-0.156771	0.166977	-9.814474	-0.003950	-0.004765	-0.002471			
24054	7179051	-0.183366	0.171721	-9.835916	-0.003208	-0.000107	-0.003789	179.762115	0.969825	-89.492783
24055	7179076	-0.191787	0.154824	-9.824369	-0.003539	-0.001732	-0.005595			
24056	7179101	-0.174834	0.178517	-9.840278	-0.002484	-0.002477	-0.001116			
24057	7179126	-0.191632	0.157158	-9.852642	-0.001520	0.000949	-0.006992			
24058	7179151	-0.184449	0.135350	-9.815286	-0.005740	-0.001194	-0.008604	179.762543	0.970228	-89.490601
24059	7179176	-0.189005	0.155657	-9.812400	-0.004922	-0.002527	-0.005400			
24060	7179201	-0.177762	0.176805	-9.818687	-0.007516	-0.001073	-0.000454			
24061	7179226	-0.174657	0.165747	-9.841709	-0.002366	0.000107	0.000247			
24062	7179251	-0.167649	0.120182	-9.799550	-0.007592	0.001247	-0.000575	179.761642	0.970304	-89.490761
24063	7179276	-0.166808	0.133545	-9.810584	-0.001037	-0.001617	-0.002526			
24064	7179301	-0.192123	0.189679	-9.835396	-0.005542	0.001480	0.000204			
24065	7179326	-0.177219	0.167830	-9.820125	-0.005440	-0.000271	-0.003849			
24066	7179351	-0.189278	0.151739	-9.835402	-0.003330	-0.002041	-0.001431	179.761749	0.970411	-89.490677
24067	7179376	-0.175553	0.159553	-9.841225	-0.003307	-0.002626	-0.000410			
24068	7179401	-0.160307	0.163092	-9.842741	-0.002995	0.001709	-0.000769			
24069	7179426	-0.173433	0.165797	-9.810081	-0.007157	-0.000693	-0.004810			
24070	7179451	-0.192873	0.158893	-9.807582	-0.007942	-0.001660	0.002366	179.760971	0.970633	-89.491165
24071	7179476	-0.155628	0.149867	-9.807296	-0.008635	-0.001943	0.000121			
24072	7179501	-0.159795	0.149014	-9.817330	-0.006928	0.002678	-0.002035			
24073	7179526	-0.159227	0.142073	-9.828838	-0.006290	-0.005519	-0.000483			
24074	7179551	-0.192364	0.157974	-9.810946	-0.004815	0.000453	-0.001985	179.759445	0.971007	-89.491615
24075	7179576	-0.182400	0.177616	-9.846952	-0.003649	-0.001857	-0.000469			
24076	7179601	-0.155988	0.150594	-9.826461	-0.006548	0.000021	-0.007695			
24077	7179626	-0.179341	0.159115	-9.841207	-0.007190	0.000009	-0.007561			
24078	7179651	-0.177254	0.176391	-9.824451	-0.006439	-0.000799	-0.000328	179.758362	0.971144	-89.490318
24079	7179676	-0.176024	0.159550	-9.837871	-0.004889	0.000772	-0.001346			
24080	7179701	-0.165825	0.147334	-9.838872	-0.005741	0.001535	-0.001857			
24081	7179726	-0.178291	0.177595	-9.810536	-0.002269	0.001340	0.002110			
24082	7179751	-0.153739	0.119352	-9.828862	-0.006734	-0.003454	0.001651	179.757843	0.970867	-89.491394
24083	7179776	-0.170181	0.153453	-9.837894	-0.007606	0.001824	-0.002812			
24084	7179801	-0.163924	0.180103	-9.837927	-0.006768	-0.001967	0.003900			
24085	7179826	-0.170609	0.133010	-9.808641	-0.000818	-0.000376	0.000753			
24086	7179851	-0.162762	0.154852	-9.799125	-0.001678	0.004642	-0.000760	179.757706	0.970028	-89.492531
24087	7179876	-0.146670	0.146039	-9.839073	-0.006391	-0.000480	-0.001991			
24088	7179901	-0.160046	0.163662	-9.851954	-0.008497	0.003612	-0.003825			
24089	7179926	-0.195965	0.151028	-9.802394	-0.008556	0.003748	0.001054			
24090	7179951	-0.167205	0.139718	-9.813086	-0.007555	-0.000249	-0.004549	179.755569	0.968835	-89.492233
24091	7179976	-0.171941	0.139310	-9.821202	-0.007924	-0.002578	-0.003986			
24092	7180001	-0.172033	0.156580	-9.840862	-0.001940	-0.001703	-0.004444			
24093	7180026	-0.169433	0.169224	-9.825067	-0.003904	-0.001727	0.000240			
24094	7180051	-0.198778	0.171016	-9.782730	-0.000423	-0.002761	-0.000474	179.755829	0.969847	-89.492012
24095	7180076	-0.197581	0.174540	-9.819166	-0.006975	0.002488	0.001812			
24096	7180101	-0.154481	0.165063	-9.845748	-0.008994	-0.001046	-0.003274			
24097	7180126	-0.175648	0.172973	-9.821672	-0.008748	-0.000456	0.000383			
24098	7180151	-0.176402	0.159523	-9.816874	-0.005083	0.004835	-0.004660	179.753860	0.968767	-89.492203
24099	7180176	-0.178573	0.161476	-9.855206	-0.003681	0.007382	-0.001444			
24100	7180201	-0.188484	0.169057	-9.829286	-0.002977	-0.003198	-0.001949			
24101	7180226	-0.171276	0.157638	-9.810194	-0.007631	-0.001733	-0.002638			
24102	7180251	-0.188320	0.144471	-9.806756	-0.001276	-0.004330	-0.001124	179.753922	0.968792	-89.492195
24103	7180276	-0.173984	0.166203	-9.845164	-0.006886	0.001122	-0.003459			
24104	7180301	-0.170666	0.161399	-9.840396	-0.004788	-0.002788	-0.006302			
24105	7180326	-0.178915	0.158966	-9.813031	-0.002991	-0.002617	-0.002076			
24106	7180351	-0.181792	0.163736	-9.813497	-0.005573	-0.000283	-0.007255	179.753372	0.969208	-89.490486
24107	7180376	-0.152385	0.143350	-9.826583	-0.003538	0.002274	-0.006023			
24108	7180401	-0.176585	0.177089	-9.844214	-0.007464	-0.005026	-0.003551			
24109	7180426	-0.160787	0.165122	-9.827020	-0.005814	-0.002538	-0.002262			
24110	7180451	-0.183272	0.139222	-9.828816	-0.004520	0.001235	-0.001666	179.752625	0.969548	-89.489586
24111	7180476	-0.174484	0.154366	-9.819281	-0.003238	0.001325	-0.001220			
24112	7180501	-0.165319	0.153365	-9.840892	-0.001165	-0.004010	-0.005169			
24113	7180526	-0.172707	0.167322	-9.824567	-0.007726	0.002770	-0.011776			
24114	7180551	-0.189808	0.159836	-9.816329	-0.005211	0.000699	-0.004680	179.752487	0.969200	-89.487328
24115	7180576	-0.160428	0.139535	-9.829895	-0.003874	0.001381	0.000450			
24116	7180601	-0.163267	0.181007	-9.842828	-0.006820	-0.001076	-0.003468			
24117	7180626	-0.162143	0.155583	-9.822704	-0.007240	-0.004059	-0.005281			
24118	7180651	-0.152385	0.137532	-9.814112	-0.005904	0.000559	-0.003149	179.751373	0.969415	-89.486664
24119	7180676	-0.168634	0.182085	-9.828901	-0.000896	0.000198	0.000435			
24120	7180701	-0.170107	0.150225	-9.823132	-0.002475	0.002053	0.004357			
24121	7180726	-0.184800	0.170669	-9.805814	-0.007996	0.001682	-0.003894			
24122	7180751	-0.200360	0.162595	-9.818676	-0.004371	-0.003350	-0.000215	179.751404	0.969082	-89.487778
24123	7180776	-0.155039	0.174862	-9.839510	-0.005397	0.004631	-0.004916			
24124	7180801	-0.156590	0.183653	-9.858205	-0.004353	-0.006326	-0.003055			
24125	7180826	-0.168069	0.145318	-9.842327	-0.003491	-0.002949	-0.001310			
24126	7180851	-0.185426	0.145438	-9.801011	-0.006016	-0.000024	-0.004044	179.750961	0.969509	-89.486916
24127	7180876	-0.160614	0.146872	-9.814076	-0.004207	0.001365	-0.003462			
24128	7180901	-0.175069	0.144671	-9.863374	-0.008716	0.000122	-0.003710			
24129	7180926	-0.191639	0.189156	-9.814409	-0.002442	-0.001633	-0.000015			
24130	7180951	-0.202750	0.154194	-9.799967	-0.002824	-0.001842	-0.002453	179.750671	0.969551	-89.486534
24131	7180976	-0.175377	0.154000	-9.825507	-0.006610	0.000480	-0.004426			
24132	7181001	-0.184565	0.166873	-9.837453	-0.003618	-0.001147	-0.002833			
24133	7181026	-0.183903	0.186607	-9.822598	-0.006242	0.001068	-0.003460			
24134	7181051	-0.164374	0.129029	-9.795359	-0.005312	-0.002471	-0.005081	179.749863	0.969607	-89.485291
24135	7181076	-0.159340	0.151849	-9.796826	-0.004403	0.001754	-0.001025			
24136	7181101	-0.166088	0.174151	-9.828433	-0.008219	0.001039	-0.002046			
24137	7181126	-0.183067	0.152442	-9.824512	-0.004902	-0.002384	0.003192			
24138	7181151	-0.184007	0.152275	-9.812997	-0.005037	0.001414	-0.002372	179.748917	0.969099	-89.485970
24139	7181176	-0.171079	0.157033	-9.833198	-0.005296	0.001670	-0.001986			
24140	7181201	-0.136494	0.152694	-9.804132	-0.004880	-0.003818	-0.003873			
24141	7181226	-0.180916	0.168346	-9.807275	-0.004594	0.001551	-0.000960			
24142	7181251	-0.199253	0.143349	-9.802381	-0.002734	-0.002676	-0.002331	179.748718	0.969323	-89.485710
24143	7181276	-0.166385	0.148079	-9.809245	0.002229	0.000119	-0.004449			
24144	7181301	-0.132362	0.132580	-9.820448	-0.002012	-0.003311	-0.001700			
24145	7181326	-0.175035	0.180926	-9.787176	-0.003274	-0.001709	-0.000598			
24146	7181351	-0.181179	0.155202	-9.822602	0.003211	-0.000636	-0.003113	179.751053	0.969873	-89.485306
24147	7181376	-0.164906	0.160452	-9.834194	-0.004011	0.003503	-0.002040			
24148	7181401	-0.175035	0.167018	-9.837015	-0.007612	-0.002578	-0.006358			
24149	7181426	-0.172589	0.157945	-9.837506	0.000013	-0.002767	-0.003114			
24150	7181451	-0.168900	0.154650	-9.801092	-0.005943	-0.002742	-0.006492	179.750854	0.970292	-89.483757
24151	7181476	-0.138705	0.158503	-9.841511	-0.006410	0.000295	-0.001730			
24152	7181501	-0.174008	0.193812	-9.826486	-0.000125	-0.002256	-0.004256			
24153	7181526	-0.156093	0.166464	-9.817461	-0.004631	-0.001222	-0.001428			
24154	7181551	-0.161415	0.128318	-9.811672	-0.004457	-0.005034	-0.003047	179.750931	0.971225	-89.483315
24155	7181576	-0.160415	0.168813	-9.817918	-0.007856	-0.002639	-0.003281			
24156	7181601	-0.168035	0.178841	-9.834658	-0.000456	-0.001997	-0.004449			
24157	7181626	-0.170784	0.142873	-9.778552	-0.004458	-0.000641	-0.002964			
24158	7181651	-0.177744	0.147309	-9.822616	-0.006245	-0.001259	-0.005455	179.750519	0.971922	-89.481979
24159	7181676	-0.142081	0.156748	-9.824716	-0.005332	0.000644	0.000572			
24160	7181701	-0.148725	0.162499	-9.836669	-0.000210	0.004667	-0.001597			
24161	7181726	-0.176627	0.134270	-9.810157	-0.003402	0.004615	-0.002164			
24162	7181751	-0.156708	0.143035	-9.837582	-0.005944	-0.004868	-0.003873	179.750687	0.970952	-89.481972
24163	7181776	-0.146303	0.146344	-9.829487	-0.005244	-0.006410	-0.002670			
24164	7181801	-0.161575	0.163527	-9.846673	-0.005411	-0.000916	-0.000526			
24165	7181826	-0.161266	0.154933	-9.811677	-0.006241	-0.003326	-0.003290			
24166	7181851	-0.162961	0.145453	-9.818857	-0.002019	-0.001188	-0.005788	179.750275	0.972406	-89.481270
24167	7181876	-0.181012	0.154230	-9.842732	-0.008772	0.000517	0.002705			
24168	7181901	-0.166147	0.161885	-9.804465	-0.006567	-0.003074	-0.003672			
24169	7181926	-0.165965	0.165574	-9.834188	-0.000721	0.000456	-0.003284			
24170	7181951	-0.196860	0.138444	-9.791356	-0.001012	-0.000386	-0.001617	179.750137	0.972516	-89.481506
24171	7181976	-0.173363	0.174692	-9.811143	-0.005455	0.000830	0.000645			
24172	7182001	-0.155210	0.175976	-9.821301	-0.000280	0.000788	-0.003023			
24173	7182026	-0.206765	0.182996	-9.824403	-0.003892	-0.004639	-0.004004			
24174	7182051	-0.191395	0.169200	-9.808651	-0.007407	0.001369	-0.004925	179.750015	0.972509	-89.480934
24175	7182076	-0.198885	0.168021	-9.830663	-0.007115	0.000411	-0.000700			
24176	7182101	-0.152760	0.142330	-9.848627	-0.007100	-0.002564	-0.005206			
24177	7182126	-0.178636	0.148217	-9.824526	-0.003146	0.002219	-0.004169			
24178	7182151	-0.196991	0.156277	-9.804789	-0.005779	0.001028	0.002255	179.748978	0.972108	-89.480782
24179	7182176	-0.166948	0.164193	-9.837529	-0.002892	-0.003453	0.000423			
24180	7182201	-0.146843	0.168945	-9.845783	-0.009523	0.001660	-0.000246			
24181	7182226	-0.174455	0.146781	-9.821682	-0.000434	-0.004505	-0.001065			
24182	7182251	-0.168082	0.129661	-9.808764	-0.006570	-0.003205	-0.006619	179.748505	0.973224	-89.480713
24183	7182276	-0.166122	0.172208	-9.827961	-0.007503	-0.003734	-0.004315			
24184	7182301	-0.156356	0.157787	-9.841434	-0.003533	-0.003858	-0.004132			
24185	7182326	-0.142315	0.127195	-9.816078	-0.002919	-0.003207	-0.005034			
24186	7182351	-0.159025	0.167089	-9.798269	-0.004159	0.002012	-0.004037	179.748230	0.974243	-89.479256
24187	7182376	-0.169576	0.146547	-9.831760	-0.005031	-0.001176	-0.004303			
24188	7182401	-0.166631	0.177005	-9.831311	-0.008391	-0.001684	-0.001223			
24189	7182426	-0.183716	0.161773	-9.810604	-0.007778	-0.003016	0.000112			
24190	7182451	-0.197058	0.160337	-9.797598	-0.000957	0.002208	0.001274	179.747360	0.974521	-89.479668
24191	7182476	-0.162762	0.166870	-9.822695	-0.001477	-0.001942	-0.000213			
24192	7182501	-0.153424	0.158319	-9.840475	-0.004525	0.001425	-0.003463			
24193	7182526	-0.159694	0.152131	-9.813123	-0.006913	0.002162	-0.000757			
24194	7182551	-0.152902	0.139996	-9.820827	-0.007181	0.000343	-0.001855	179.746765	0.973991	-89.479813
24195	7182576	-0.165489	0.164661	-9.830830	-0.006033	0.000428	-0.004047			
24196	7182601	-0.169302	0.164693	-9.838000	-0.006014	-0.001760	0.002104			
24197	7182626	-0.164699	0.165870	-9.817907	-0.005209	-0.003360	-0.000665			
24198	7182651	-0.182526	0.146030	-9.810608	-0.002131	0.000761	0.000565	179.746277	0.974305	-89.480576
24199	7182676	-0.159439	0.148922	-9.854829	-0.001431	-0.001293	-0.000153			
24200	7182701	-0.179503	0.182990	-9.831248	-0.006267	0.001843	-0.003649			
24201	7182726	-0.178718	0.171132	-9.797701	-0.005570	-0.002742	-0.009504			
24202	7182751	-0.173517	0.153408	-9.816411	-0.007030	-0.000498	-0.005393	179.745697	0.974452	-89.478981
24203	7182776	-0.160864	0.170718	-9.821276	-0.005330	0.000440	-0.003399			
24204	7182801	-0.168028	0.166644	-9.808294	-0.005455	0.002635	-0.002554			
24205	7182826	-0.170766	0.157157	-9.812115	-0.003830	-0.000373	-0.003156			
24206	7182851	-0.155463	0.151180	-9.810279	-0.005019	-0.000837	0.001784	179.745193	0.973939	-89.478920
24207	7182876	-0.175822	0.174466	-9.802990	-0.002766	-0.001252	0.001206			
24208	7182901	-0.161725	0.170549	-9.839966	-0.007397	-0.002885	-0.001746			
24209	7182926	-0.182475	0.144987	-9.828818	-0.008498	-0.004855	-0.004190			
24210	7182951	-0.183366	0.140503	-9.816835	-0.006232	0.000814	-0.001411	179.743912	0.974864	-89.478996
24211	7182976	-0.163841	0.148705	-9.841863	-0.005737	-0.002858	-0.002198			
24212	7183001	-0.188996	0.176135	-9.823045	-0.009631	0.003146	-0.002342			
24213	7183026	-0.171694	0.151360	-9.798678	-0.011210	0.002339	-0.000684			
24214	7183051	-0.204299	0.129110	-9.804745	-0.006956	-0.003016	-0.006233	179.741409	0.974676	-89.478386
24215	7183076	-0.165972	0.126071	-9.820747	-0.004700	0.005239	-0.001130			
24216	7183101	-0.162801	0.147876	-9.849051	-0.008684	-0.000985	-0.005516			
24217	7183126	-0.145890	0.146944	-9.808879	-0.002269	0.000685	-0.002897			
24218	7183151	-0.199621	0.177105	-9.807656	-0.002283	-0.000665	-0.002129	179.741150	0.973821	-89.477715
24219	7183176	-0.178326	0.185984	-9.807769	-0.005400	-0.001438	-0.003536			
24220	7183201	-0.178445	0.138933	-9.835551	-0.007342	0.003439	-0.003634			
24221	7183226	-0.200980	0.147021	-9.823937	-0.005126	0.004651	-0.000553			
24222	7183251	-0.174926	0.110537	-9.805847	-0.006045	0.005411	0.002463	179.740021	0.971846	-89.478004
24223	7183276	-0.175284	0.143106	-9.823593	-0.008303	-0.000639	-0.001217			
24224	7183301	-0.177802	0.193840	-9.825500	-0.006358	0.000745	-0.002815			
24225	7183326	-0.184951	0.155317	-9.826418	-0.007235	-0.001848	0.000824			
24226	7183351	-0.184035	0.152783	-9.815398	-0.005329	-0.001627	-0.002642	179.738403	0.972082	-89.478157
24227	7183376	-0.175693	0.138844	-9.827415	-0.003932	-0.001274	-0.001618			
24228	7183401	-0.185571	0.168722	-9.833126	-0.006783	0.002028	-0.000626			
24229	7183426	-0.183147	0.161349	-9.816360	-0.001930	0.000504	-0.000457			
24230	7183451	-0.178286	0.147059	-9.809677	-0.004034	-0.000052	-0.002311	179.738312	0.971662	-89.478516
24231	7183476	-0.184171	0.164787	-9.821631	-0.007258	-0.003277	-0.003093			
24232	7183501	-0.153586	0.156425	-9.813641	-0.003622	-0.000817	-0.001173			
24233	7183526	-0.162535	0.150376	-9.828928	-0.003150	-0.003588	-0.001568			
24234	7183551	-0.181774	0.162792	-9.815898	-0.006522	-0.002092	0.000691	179.737656	0.972814	-89.478828
24235	7183576	-0.157562	0.171250	-9.823201	-0.002421	-0.002092	0.000869			
24236	7183601	-0.167871	0.169021	-9.840409	-0.006346	0.002426	-0.002424			
24237	7183626	-0.186908	0.149418	-9.813948	-0.005928	-0.005059	-0.003427			
24238	7183651	-0.165106	0.148384	-9.791048	-0.006071	-0.004415	-0.002077	179.736984	0.973878	-89.478783
24239	7183676	-0.183015	0.154261	-9.825946	0.001936	-0.000599	-0.004706			
24240	7183701	-0.160288	0.160786	-9.823195	-0.000656	-0.003801	-0.003697			
24241	7183726	-0.176344	0.135452	-9.791468	-0.004180	0.000595	-0.001670			
24242	7183751	-0.168856	0.164074	-9.828910	-0.006172	-0.001456	-0.005841	179.738007	0.974391	-89.477585
24243	7183776	-0.172966	0.164341	-9.856208	0.001983	0.000255	0.001320			
24244	7183801	-0.158232	0.165659	-9.860107	-0.004591	-0.002390	0.000428			
24245	7183826	-0.175491	0.158298	-9.829823	-0.003229	-0.003466	-0.003232			
24246	7183851	-0.173696	0.169193	-9.822641	-0.003487	0.000530	-0.007693	179.738968	0.974872	-89.477295
24247	7183876	-0.149954	0.141178	-9.835217	-0.008941	-0.000724	-0.001606			
24248	7183901	-0.180141	0.196876	-9.839871	-0.004929	0.000127	-0.001414			
24249	7183926	-0.146260	0.144808	-9.820858	-0.005884	-0.000481	-0.007124			
24250	7183951	-0.168054	0.120812	-9.790545	-0.004117	0.000790	-0.001283	179.737854	0.974670	-89.476685
24251	7183976	-0.180277	0.157566	-9.819728	0.000256	-0.001644	0.003822			
24252	7184001	-0.156724	0.191855	-9.836155	-0.002497	0.002037	-0.004621			
24253	7184026	-0.154410	0.165377	-9.775285	-0.006124	0.001131	-0.005765			
24254	7184051	-0.171398	0.163881	-9.789580	-0.002649	0.003010	-0.003074	179.738586	0.973777	-89.476318
24255	7184076	-0.179625	0.148793	-9.832203	-0.001568	-0.001174	-0.002392			
24256	7184101	-0.179041	0.169704	-9.801536	-0.004661	0.001347	-0.008206			
24257	7184126	-0.159643	0.168938	-9.797308	-0.004253	-0.003684	-0.006180			
24258	7184151	-0.185278	0.166185	-9.798138	0.000131	-0.002244	-0.003231	179.739426	0.974363	-89.474480
24259	7184176	-0.164819	0.160231	-9.852884	-0.002314	0.000302	-0.003859			
24260	7184201	-0.163562	0.162508	-9.843304	-0.005452	-0.004084	-0.003296			
24261	7184226	-0.191702	0.155039	-9.811047	-0.008662	0.000508	-0.004609			
24262	7184251	-0.186536	0.131075	-9.824961	-0.005744	0.001794	0.000459	179.738556	0.974331	-89.473869
24263	7184276	-0.160669	0.139524	-9.857212	-0.007612	0.003950	-0.002997			
24264	7184301	-0.176628	0.179328	-9.839413	-0.002936	-0.004224	0.001891			
24265	7184326	-0.181637	0.161751	-9.838899	-0.008582	-0.001810	-0.001223			
24266	7184351	-0.194872	0.145078	-9.814856	-0.008352	0.000769	-0.003834	179.736908	0.974273	-89.473946
24267	7184376	-0.164976	0.172928	-9.847136	-0.000919	0.002651	-0.003469			
24268	7184401	-0.152175	0.162359	-9.824183	-0.006153	0.000556	0.000581			
24269	7184426	-0.162534	0.178536	-9.806415	-0.005437	-0.002076	-0.000980			
24270	7184451	-0.167313	0.144220	-9.806365	0.002666	-0.003286	0.000921	179.737793	0.974332	-89.474556
24271	7184476	-0.164236	0.144389	-9.843284	-0.000390	0.000007	-0.002968			
24272	7184501	-0.164530	0.162756	-9.829400	-0.005127	0.000182	-0.003985			
24273	7184526	-0.193670	0.168449	-9.822056	-0.009055	0.003088	-0.003242			
24274	7184551	-0.190183	0.150752	-9.809611	-0.008079	0.002594	-0.002481	179.736847	0.973249	-89.473740
24275	7184576	-0.181156	0.153931	-9.825960	-0.003785	-0.004056	-0.004196			
24276	7184601	-0.159393	0.170891	-9.831825	-0.005023	-0.000907	0.000052			
24277	7184626	-0.171857	0.128658	-9.813063	-0.003673	-0.000943	0.001015			
24278	7184651	-0.173742	0.158838	-9.796277	-0.006086	-0.000159	-0.005001	179.736496	0.973871	-89.473633
24279	7184676	-0.160132	0.158167	-9.838048	-0.005683	-0.000800	-0.007129			
24280	7184701	-0.158151	0.145280	-9.834223	-0.001688	-0.003237	-0.000606			
24281	7184726	-0.180850	0.157340	-9.797684	-0.008312	0.000075	0.001670			
24282	7184751	-0.194526	0.167158	-9.832603	-0.005059	0.004190	-0.004277	179.735825	0.973594	-89.473152
24283	7184776	-0.172126	0.165739	-9.847572	-0.004208	-0.002438	0.000881			
24284	7184801	-0.144999	0.163514	-9.836212	-0.004357	-0.001670	0.001135			
24285	7184826	-0.180075	0.169647	-9.798643	-0.003006	-0.002295	-0.003040			
24286	7184851	-0.174478	0.155934	-9.825031	-0.004731	-0.000131	-0.001292	179.735779	0.974280	-89.473907
24287	7184876	-0.153916	0.154995	-9.843347	-0.003193	-0.002761	-0.005795			
24288	7184901	-0.160070	0.144666	-9.823667	-0.006011	-0.000083	0.001982			
24289	7184926	-0.160902	0.169730	-9.817436	-0.004867	-0.001875	-0.001556			
24290	7184951	-0.170680	0.145642	-9.806355	-0.003827	-0.002502	-0.000660	179.735504	0.975067	-89.474083
24291	7184976	-0.187458	0.172961	-9.838866	-0.001767	0.001211	-0.002573			
24292	7185001	-0.149156	0.153547	-9.842412	0.001931	-0.004598	-0.002868			
24293	7185026	-0.169248	0.155061	-9.826024	-0.007635	-0.001869	-0.006874			
24294	7185051	-0.161822	0.135610	-9.822219	-0.003897	0.001493	-0.006545	179.736191	0.975367	-89.472359
24295	7185076	-0.167414	0.161238	-9.825549	-0.004506	-0.001486	-0.004952			
24296	7185101	-0.163532	0.165415	-9.848586	-0.003904	-0.004122	-0.001632			
24297	7185126	-0.183163	0.147824	-9.801979	-0.006288	-0.005518	-0.000352			
24298	7185151	-0.193682	0.165696	-9.828783	-0.006628	-0.004940	-0.002012	179.735443	0.977423	-89.472069
24299	7185176	-0.189858	0.167563	-9.825437	-0.004518	0.001036	-0.003009			
24300	7185201	-0.178926	0.171196	-9.834118	-0.009282	-0.002286	-0.004877			
24301	7185226	-0.194162	0.158692	-9.805283	-0.006883	-0.000939	-0.002120			
24302	7185251	-0.200543	0.140716	-9.813396	-0.007324	-0.000873	0.001022	179.733734	0.977616	-89.471825
24303	7185276	-0.173046	0.154136	-9.829833	-0.008129	-0.003737	0.002100			
24304	7185301	-0.170534	0.143960	-9.820736	-0.001827	0.001220	0.000566			
24305	7185326	-0.148097	0.135608	-9.813177	-0.001232	0.001039	0.004089			
24306	7185351	-0.173154	0.151790	-9.805385	-0.003204	-0.002040	-0.001557	179.733932	0.977866	-89.473557
24307	7185376	-0.164261	0.150067	-9.840899	-0.003639	0.004026	-0.000052			
24308	7185401	-0.159536	0.186136	-9.835665	-0.004017	-0.000376	-0.002834			
24309	7185426	-0.183640	0.158578	-9.818763	-0.008805	-0.005180	-0.004509			
24310	7185451	-0.187633	0.134723	-9.817299	-0.003274	-0.002442	-0.009635	179.733429	0.978194	-89.472145
24311	7185476	-0.172362	0.146462	-9.827918	-0.004293	0.004071	-0.005823			
24312	7185501	-0.150864	0.152382	-9.858222	-0.001138	0.003287	-0.004938			
24313	7185526	-0.164313	0.148220	-9.842828	-0.005692	-0.002412	-0.004317			
24314	7185551	-0.202830	0.174352	-9.811001	-0.007503	0.002466	-0.005373	179.733078	0.976895	-89.470200
24315	7185576	-0.172538	0.156645	-9.843257	-0.005563	-0.002606	-0.004247			
24316	7185601	-0.175604	0.173514	-9.827420	-0.008492	0.001617	-0.002104			
24317	7185626	-0.162002	0.148468	-9.826056	-0.005992	0.001794	0.002575			
24318	7185651	-0.180306	0.164883	-9.828362	-0.004786	-0.002262	-0.000016	179.731812	0.976854	-89.470711
24319	7185676	-0.166375	0.145905	-9.815958	-0.002578	-0.003445	0.001439			
24320	7185701	-0.163735	0.169085	-9.810708	-0.005092	0.001219	-0.003591			
24321	7185726	-0.194332	0.177231	-9.808640	-0.006458	0.002103	-0.001013			
24322	7185751	-0.177670	0.160423	-9.780438	-0.009936	0.000291	-0.004412	179.730667	0.976584	-89.470673
24323	7185776	-0.197433	0.175361	-9.847933	-0.001220	0.000122	-0.003734			
24324	7185801	-0.148986	0.147963	-9.846733	-0.002946	0.000095	-0.002384			
24325	7185826	-0.181790	0.154045	-9.805820	-0.001194	-0.003368	-0.006634			
24326	7185851	-0.162756	0.131205	-9.818375	0.000077	-0.000434	-0.002775	179.732224	0.976856	-89.469437
24327	7185876	-0.149026	0.137751	-9.823230	-0.010160	-0.000548	-0.002243			
24328	7185901	-0.158332	0.165686	-9.835178	0.001761	0.000891	-0.004505			
24329	7185926	-0.174102	0.172702	-9.838467	-0.004582	0.001164	-0.003847			
24330	7185951	-0.167663	0.129142	-9.807810	-0.006196	-0.004412	0.000298	179.731781	0.977027	-89.468979
24331	7185976	-0.163277	0.149684	-9.847618	-0.001240	0.002640	-0.005193			
24332	7186001	-0.165052	0.166107	-9.834186	-0.003491	-0.003144	-0.003102			
24333	7186026	-0.172936	0.174054	-9.801076	-0.003865	0.000653	-0.006229			
24334	7186051	-0.174295	0.137563	-9.807284	-0.001779	0.003932	-0.001594	179.732605	0.976202	-89.467751
24335	7186076	-0.167417	0.138429	-9.856220	-0.007434	-0.001857	-0.002958			
24336	7186101	-0.135781	0.155670	-9.839616	-0.006640	0.001249	-0.005706			
24337	7186126	-0.192881	0.173910	-9.807210	-0.005257	0.002249	-0.004925			
24338	7186151	-0.171132	0.153501	-9.816418	-0.008385	0.001937	-0.003704	179.730957	0.975449	-89.466255
24339	7186176	-0.170023	0.142837	-9.834650	-0.005652	-0.003633	-0.003099			
24340	7186201	-0.164922	0.145983	-9.823641	-0.000447	-0.006126	-0.000566			
24341	7186226	-0.162696	0.161145	-9.816948	-0.005287	-0.002854	-0.002201			
24342	7186251	-0.177274	0.142296	-9.806315	-0.003995	0.000855	-0.001732	179.731049	0.976886	-89.466248
24343	7186276	-0.196496	0.161685	-9.818213	-0.004718	0.001355	-0.001979			
24344	7186301	-0.179552	0.151752	-9.839385	-0.004341	0.001755	-0.002046			
24345	7186326	-0.191173	0.149812	-9.812006	-0.004037	-0.002252	-0.005019			
24346	7186351	-0.160994	0.137320	-9.809766	-0.005202	-0.001296	0.000307	179.730728	0.976703	-89.466057
24347	7186376	-0.164499	0.150575	-9.810226	-0.005899	0.002825	0.000848			
24348	7186401	-0.176701	0.164382	-9.856662	-0.000939	0.005496	-0.002679			
24349	7186426	-0.178311	0.150605	-9.820225	-0.007661	-0.004964	-0.003999			
24350	7186451	-0.173635	0.162396	-9.817367	-0.004336	0.001490	-0.003913	179.730331	0.975764	-89.465607
24351	7186476	-0.166810	0.149925	-9.831778	-0.003706	-0.004120	-0.000481			
24352	7186501	-0.166910	0.162855	-9.839942	-0.005290	-0.004984	-0.003235			
24353	7186526	-0.171187	0.157332	-9.824096	-0.004385	-0.001027	-0.002386			
24354	7186551	-0.170689	0.148467	-9.802521	-0.004345	0.003749	-0.003256	179.730087	0.976433	-89.465279
24355	7186576	-0.163849	0.158359	-9.855763	-0.002967	0.000873	0.000189			
24356	7186601	-0.146260	0.147467	-9.837164	-0.007190	-0.005007	0.003563			
24357	7186626	-0.178532	0.146113	-9.839873	-0.005122	-0.000077	-0.004882			
24358	7186651	-0.180636	0.151489	-9.820684	-0.006747	-0.001131	-0.001675	179.729218	0.976949	-89.465904
24359	7186676	-0.152521	0.145039	-9.815078	-0.002086	-0.000662	-0.000596			
24360	7186701	-0.173678	0.181785	-9.844213	-0.002557	0.002107	-0.001478			
24361	7186726	-0.173085	0.153894	-9.816888	-0.003511	-0.002564	-0.004646			
24362	7186751	-0.192011	0.151933	-9.827822	-0.003503	0.001502	-0.003465	179.729843	0.976649	-89.465439
24363	7186776	-0.180994	0.182536	-9.834595	-0.005272	-0.003503	-0.004379			
24364	7186801	-0.187887	0.161002	-9.826883	-0.007555	-0.000186	-0.005512			
24365	7186826	-0.162841	0.141866	-9.828434	-0.005676	-0.000729	-0.003605			
24366	7186851	-0.179793	0.134766	-9.842739	-0.007343	0.001435	-0.003520	179.728470	0.976835	-89.464012
24367	7186876	-0.183352	0.168267	-9.804383	-0.006224	-0.001505	-0.001422			
24368	7186901	-0.169130	0.188221	-9.822195	-0.007603	0.006026	-0.000671			
24369	7186926	-0.164872	0.140297	-9.819805	-0.006743	-0.007324	0.002974			
24370	7186951	-0.200371	0.165408	-9.815797	-0.006998	-0.001132	0.000571	179.726791	0.977146	-89.465294
24371	7186976	-0.170286	0.161687	-9.829859	-0.001921	-0.002408	-0.003679			
24372	7187001	-0.161807	0.165080	-9.825102	-0.003634	-0.004502	-0.001122			
24373	7187026	-0.176158	0.170411	-9.814004	-0.004114	-0.001137	0.004727			
24374	7187051	-0.181183	0.143511	-9.801505	-0.000800	-0.003034	-0.000989	179.727570	0.978481	-89.466194
24375	7187076	-0.183114	0.150581	-9.798617	0.000101	0.002863	-0.003654			
24376	7187101	-0.169611	0.146058	-9.827932	-0.005509	-0.004086	-0.002848			
24377	7187126	-0.150031	0.146376	-9.830900	-0.010403	0.001195	-0.000177			
24378	7187151	-0.180503	0.149092	-9.824051	-0.000164	0.003313	-0.001734	179.727585	0.977764	-89.466011
24379	7187176	-0.156510	0.178328	-9.850053	-0.004250	-0.001213	-0.000593			
24380	7187201	-0.153569	0.161570	-9.834734	-0.007236	-0.001849	0.000696			
24381	7187226	-0.167297	0.160936	-9.843284	-0.000200	-0.000124	-0.004512			
24382	7187251	-0.192808	0.183996	-9.844598	-0.005692	-0.000148	-0.001672	179.727371	0.977994	-89.466133
24383	7187276	-0.186354	0.160081	-9.829771	-0.004679	0.004393	-0.001137			
24384	7187301	-0.164783	0.133568	-9.816925	-0.003427	-0.000948	-0.001550			
24385	7187326	-0.160817	0.124579	-9.817908	-0.001074	-0.002980	-0.007147			
24386	7187351	-0.172900	0.138268	-9.819768	-0.003336	-0.002104	-0.002582	179.727890	0.977984	-89.465431
24387	7187376	-0.174621	0.167680	-9.820722	-0.005859	0.003077	-0.002357			
24388	7187401	-0.161307	0.168482	-9.829415	-0.006327	-0.002749	-0.007196			
24389	7187426	-0.184339	0.170597	-9.801498	-0.002302	-0.002149	-0.001560			
24390	7187451	-0.177946	0.166199	-9.819744	-0.006448	0.001849	0.000778	179.727188	0.977735	-89.464951
24391	7187476	-0.166405	0.158847	-9.827947	-0.002909	0.001396	0.001988			
24392	7187501	-0.202814	0.173158	-9.829209	-0.003929	-0.001086	-0.000264			
24393	7187526	-0.196278	0.182127	-9.822062	-0.003558	-0.002684	0.001778			
24394	7187551	-0.194270	0.163832	-9.799047	-0.008662	-0.001234	-0.001350	179.726730	0.977998	-89.466278
24395	7187576	-0.184607	0.169555	-9.826420	-0.005592	0.002562	-0.005692			
24396	7187601	-0.185334	0.182760	-9.821632	-0.005378	0.000054	-0.001025			
24397	7187626	-0.157225	0.170749	-9.791570	-0.004809	0.000659	0.003907			
24398	7187651	-0.164561	0.163601	-9.826045	-0.004132	0.000845	-0.003849	179.726166	0.977161	-89.466385
24399	7187676	-0.163814	0.139767	-9.817414	-0.004187	-0.001281	-0.003161			
24400	7187701	-0.176487	0.166388	-9.828856	-0.006710	-0.000556	-0.004171			
24401	7187726	-0.167074	0.141137	-9.845193	-0.007719	-0.002761	0.000629			
24402	7187751	-0.163073	0.156463	-9.820297	-0.006871	0.000738	-0.002819	179.724823	0.977468	-89.465973
24403	7187776	-0.183898	0.145096	-9.811086	-0.002265	0.002950	-0.002243			
24404	7187801	-0.165832	0.151267	-9.824121	-0.005391	0.002901	0.002064			
24405	7187826	-0.131925	0.139203	-9.815656	-0.004463	0.001623	0.000702			
24406	7187851	-0.174029	0.128150	-9.844207	-0.001305	-0.001433	-0.004829	179.725189	0.976354	-89.466385
24407	7187876	-0.167855	0.151500	-9.815005	-0.002687	-0.002626	-0.008039			
24408	7187901	-0.186190	0.141226	-9.833595	-0.005642	-0.002217	-0.005528			
24409	7187926	-0.202509	0.134250	-9.795650	-0.008266	-0.004135	-0.005534			
24410	7187951	-0.151166	0.114283	-9.813158	-0.006780	0.001439	-0.006723	179.724182	0.977199	-89.463692
24411	7187976	-0.191212	0.169635	-9.839809	-0.002442	0.002627	0.000325			
24412	7188001	-0.162476	0.144708	-9.824612	-0.007810	-0.002125	-0.002961			
24413	7188026	-0.174518	0.157763	-9.821674	-0.006166	-0.001252	-0.001872			
24414	7188051	-0.172112	0.190532	-9.821216	-0.005664	-0.001509	-0.005841	179.723312	0.977277	-89.463211
24415	7188076	-0.163220	0.145479	-9.850014	-0.001833	0.001080	-0.003216			
24416	7188101	-0.158923	0.167889	-9.824156	-0.000340	-0.001602	-0.003879			
24417	7188126	-0.182124	0.165813	-9.828353	-0.004877	0.004582	-0.002991			
24418	7188151	-0.164201	0.171631	-9.822689	-0.004883	0.000449	-0.003400	179.723923	0.976388	-89.462334
24419	7188176	-0.170692	0.168382	-9.832234	-0.002651	0.007208	-0.002086			
24420	7188201	-0.165243	0.143821	-9.830353	-0.008567	0.001675	-0.001460			
24421	7188226	-0.173021	0.182128	-9.803000	-0.004651	-0.000703	-0.001870			
24422	7188251	-0.195111	0.173263	-9.830678	-0.002174	0.004116	-0.002293	179.723618	0.974380	-89.462189
24423	7188276	-0.155558	0.174468	-9.843831	-0.004323	-0.000571	0.001022			
24424	7188301	-0.151279	0.164360	-9.832343	-0.003918	-0.005865	-0.002156			
24425	7188326	-0.174385	0.136145	-9.805855	-0.005440	-0.001946	0.000048			
24426	7188351	-0.188226	0.140598	-9.799087	-0.002591	0.001003	-0.003600	179.723572	0.975187	-89.462540
24427	7188376	-0.169103	0.151463	-9.841846	-0.005667	-0.001116	-0.002316			
24428	7188401	-0.190515	0.175797	-9.809141	-0.002675	-0.000222	-0.001806			
24429	7188426	-0.185825	0.143713	-9.812991	-0.004417	-0.000055	-0.001352			
24430	7188451	-0.186205	0.170180	-9.803406	-0.009161	0.002243	-0.002287	179.722733	0.974819	-89.462410
24431	7188476	-0.129192	0.149288	-9.820471	-0.005476	-0.001116	-0.004500			
24432	7188501	-0.143839	0.139716	-9.828064	-0.005493	-0.002664	-0.002904			
24433	7188526	-0.183503	0.144219	-9.813489	-0.005162	-0.004983	-0.003298			
24434	7188551	-0.153586	0.131269	-9.841434	-0.006655	-0.000097	-0.002380	179.721771	0.975844	-89.461571
24435	7188576	-0.144851	0.147224	-9.821829	-0.007313	0.000538	-0.001989			
24436	7188601	-0.159087	0.139940	-9.819831	-0.008288	-0.003225	-0.002196			
24437	7188626	-0.184035	0.151387	-9.812036	-0.013322	0.002238	-0.003366			
24438	7188651	-0.167603	0.136907	-9.822189	-0.001429	-0.001028	0.003055	179.719711	0.975806	-89.461967
24439	7188676	-0.168999	0.167246	-9.819798	-0.001764	-0.004920	-0.001386			
24440	7188701	-0.171503	0.140164	-9.818336	-0.004528	-0.002317	0.000556			
24441	7188726	-0.154917	0.150929	-9.825136	-0.006022	-0.004026	-0.001502			
24442	7188751	-0.184487	0.149248	-9.803885	-0.002874	0.002034	-0.002375	179.719818	0.976879	-89.462311
24443	7188776	-0.175741	0.147281	-9.826941	0.000265	0.003830	-0.002952			
24444	7188801	-0.190127	0.140430	-9.818241	-0.005722	-0.003575	-0.003675			
24445	7188826	-0.176218	0.137084	-9.808242	-0.002925	0.001386	-0.003213			
24446	7188851	-0.181398	0.135405	-9.825953	-0.004461	-0.002775	-0.002649	179.720291	0.976797	-89.461479
24447	7188876	-0.170300	0.163931	-9.818344	-0.005385	0.002575	-0.001784			
24448	7188901	-0.160254	0.151621	-9.809765	-0.008266	-0.000003	-0.002816			
24449	7188926	-0.174971	0.157333	-9.822150	-0.009830	0.001001	-0.005373			
24450	7188951	-0.166205	0.141275	-9.823635	-0.007080	-0.000818	-0.003277	179.718216	0.976159	-89.460587
24451	7188976	-0.146269	0.155959	-9.838116	-0.005040	0.003481	-0.003386			
24452	7189001	-0.171349	0.173119	-9.829840	-0.006962	-0.000559	-0.003012			
24453	7189026	-0.181077	0.170974	-9.795772	-0.001243	-0.003499	-0.005223			
24454	7189051	-0.182843	0.146924	-9.836488	-0.003111	0.001261	-0.001544	179.718185	0.975817	-89.459686
24455	7189076	-0.191124	0.195807	-9.846060	-0.001261	-0.002916	-0.003359			
24456	7189101	-0.180448	0.170892	-9.820221	-0.001210	-0.004385	-0.000361			
24457	7189126	-0.166525	0.156145	-9.806858	-0.002456	-0.001451	-0.003418			
24458	7189151	-0.166635	0.145861	-9.843287	-0.005902	-0.001374	-0.000267	179.718933	0.977020	-89.459648
24459	7189176	-0.153928	0.158316	-9.840480	-0.005877	-0.000408	-0.003277			
24460	7189201	-0.169317	0.166414	-9.828413	-0.000441	0.001822	-0.003143			
24461	7189226	-0.160140	0.179533	-9.804026	-0.007929	0.000012	-0.000575			
24462	7189251	-0.176600	0.167529	-9.813039	-0.004515	0.001559	0.001095	179.718536	0.976343	-89.459763
24463	7189276	-0.173988	0.193851	-9.827929	-0.001957	-0.000986	-0.002900			
24464	7189301	-0.173394	0.179966	-9.816891	-0.002375	0.001903	-0.005840			
24465	7189326	-0.173585	0.150906	-9.807780	-0.004569	-0.003348	0.000423			
24466	7189351	-0.152214	0.152029	-9.798780	-0.008650	-0.000010	-0.004224	179.718323	0.976449	-89.458954
24467	7189376	-0.159713	0.185888	-9.817447	-0.006326	-0.002487	-0.002839			
24468	7189401	-0.173570	0.152955	-9.817859	-0.005558	-0.004601	-0.003232			
24469	7189426	-0.189176	0.152911	-9.830713	-0.001156	-0.000273	-0.006169			
24470	7189451	-0.184016	0.158080	-9.820197	-0.005537	0.000884	-0.005965	179.717987	0.977137	-89.457336
24471	7189476	-0.173886	0.148871	-9.825995	-0.010613	0.003639	-0.003943			
24472	7189501	-0.172495	0.156695	-9.845177	-0.003892	-0.002371	-0.000343			
24473	7189526	-0.189009	0.166155	-9.797640	-0.001094	0.004323	-0.003329			
24474	7189551	-0.177835	0.159198	-9.826456	-0.004658	0.001550	-0.003071	179.717392	0.975868	-89.456779
24475	7189576	-0.150179	0.156249	-9.829948	-0.004162	-0.001924	0.000432			
24476	7189601	-0.138356	0.160044	-9.824727	-0.002223	-0.000735	-0.003609			
24477	7189626	-0.167965	0.160501	-9.810684	-0.005253	-0.001685	0.000623			
24478	7189651	-0.178381	0.147393	-9.799131	-0.005960	-0.001767	-0.001167	179.717148	0.976493	-89.457237
24479	7189676	-0.174361	0.145847	-9.824074	-0.000551	0.001034	-0.003155			
24480	7189701	-0.157284	0.140643	-9.803065	-0.008580	-0.000139	-0.005320			
24481	7189726	-0.162681	0.160701	-9.823654	-0.000575	-0.002453	-0.003807			
24482	7189751	-0.172154	0.153893	-9.816901	-0.001489	-0.001818	-0.002529	179.717850	0.976734	-89.456146
24483	7189776	-0.149174	0.147675	-9.821804	-0.008449	-0.002003	-0.001165			
24484	7189801	-0.142170	0.153812	-9.815128	-0.009070	-0.002469	-0.000393			
24485	7189826	-0.155961	0.138427	-9.785345	-0.004722	-0.004587	-0.002788			
24486	7189851	-0.173400	0.142588	-9.827892	-0.002265	-0.001375	-0.001685	179.716629	0.977979	-89.456299
24487	7189876	-0.159208	0.139551	-9.822135	-0.003161	-0.001332	-0.002450			
24488	7189901	-0.165031	0.154433	-9.834566	-0.008464	-0.001752	-0.004683			
24489	7189926	-0.173631	0.162988	-9.847473	-0.001621	-0.000906	0.003065			
24490	7189951	-0.198309	0.184727	-9.832487	-0.002256	-0.001577	-0.002512	179.716705	0.978528	-89.456367
24491	7189976	-0.163836	0.163175	-9.818273	-0.002094	-0.000927	-0.004883			
24492	7190001	-0.195561	0.193302	-9.829148	-0.004026	-0.002119	0.000304			
24493	7190026	-0.180144	0.137809	-9.814363	-0.006098	0.000091	-0.008400			
24494	7190051	-0.175255	0.160593	-9.811035	-0.006790	0.000483	0.000396	179.716278	0.978638	-89.455559
24495	7190076	-0.154625	0.156852	-9.835575	-0.001615	-0.003763	-0.002849			
24496	7190101	-0.160755	0.147587	-9.818767	-0.003667	-0.001468	-0.001873			
24497	7190126	-0.171588	0.141204	-9.820147	0.000200	0.002027	-0.001353			
24498	7190151	-0.163579	0.117045	-9.845106	-0.001469	-0.002402	-0.002460	179.717636	0.979194	-89.455330
24499	7190176	-0.181519	0.168745	-9.823462	-0.004588	-0.002842	-0.001937			
24500	7190201	-0.179507	0.165985	-9.826824	-0.007911	-0.000569	0.000261			
24501	7190226	-0.165926	0.135482	-9.806273	-0.005324	-0.001425	0.002618			
24502	7190251	-0.186984	0.160285	-9.837339	-0.002961	-0.001387	0.001009	179.716919	0.979830	-89.456604
24503	7190276	-0.170668	0.150510	-9.835977	-0.002059	0.002369	-0.001594			
24504	7190301	-0.172540	0.149785	-9.852264	-0.000198	-0.003989	0.000027			
24505	7190326	-0.179565	0.168723	-9.822516	-0.004402	-0.000449	-0.002378			
24506	7190351	-0.163367	0.170082	-9.832664	-0.007051	-0.003722	-0.000270	179.717255	0.980409	-89.457047
24507	7190376	-0.155792	0.182508	-9.835583	-0.002675	0.003585	-0.004476			
24508	7190401	-0.147208	0.138948	-9.833214	-0.005497	-0.002274	-0.001043			
24509	7190426	-0.191092	0.168588	-9.817183	-0.010328	-0.003333	-0.001797			
24510	7190451	-0.163614	0.154931	-9.834094	-0.009701	-0.000729	0.000714	179.715500	0.980554	-89.457146
24511	7190476	-0.173511	0.171445	-9.808644	-0.007012	-0.001012	-0.001921			
24512	7190501	-0.193853	0.174454	-9.837309	-0.004090	-0.002383	-0.003728			
24513	7190526	-0.184121	0.156438	-9.826319	-0.005428	0.001465	-0.006406			
24514	7190551	-0.174376	0.163255	-9.800010	-0.005291	0.001608	-0.001271	179.714676	0.980357	-89.456200
24515	7190576	-0.155887	0.151412	-9.845634	-0.009574	-0.002599	0.003260			
24516	7190601	-0.158626	0.167102	-9.820218	-0.008039	-0.004837	-0.001110			
24517	7190626	-0.167365	0.142754	-9.816816	-0.008792	0.000703	-0.001909			
24518	7190651	-0.180868	0.154485	-9.819145	-0.007139	-0.003015	-0.002123	179.712158	0.981501	-89.456917
24519	7190676	-0.176122	0.164738	-9.834989	-0.007670	-0.002253	-0.001480			
24520	7190701	-0.184739	0.166923	-9.829673	-0.007057	-0.001460	-0.000001			
24521	7190726	-0.171430	0.162919	-9.812958	-0.000562	0.001888	0.000572			
24522	7190751	-0.161702	0.159720	-9.840332	-0.002825	0.000229	-0.001803	179.711838	0.981478	-89.457542
24523	7190776	-0.158380	0.183220	-9.815913	-0.010528	-0.003071	-0.001223			
24524	7190801	-0.188803	0.172697	-9.807123	-0.007054	-0.001855	-0.003397			
24525	7190826	-0.183423	0.154958	-9.790853	-0.006828	-0.000949	-0.004937			
24526	7190851	-0.193525	0.184746	-9.825802	-0.002997	0.001706	-0.002110	179.710220	0.981830	-89.456924
24527	7190876	-0.165333	0.175477	-9.820186	-0.001779	-0.000276	-0.002576			
24528	7190901	-0.171100	0.136057	-9.819673	-0.004740	-0.001679	0.000633			
24529	7190926	-0.185497	0.140005	-9.808096	-0.008114	0.001219	-0.005305			
24530	7190951	-0.186783	0.145760	-9.848844	-0.001051	-0.003155	0.001769	179.710251	0.982138	-89.457169
24531	7190976	-0.172824	0.157711	-9.810082	-0.004998	0.000253	-0.001216			
24532	7191001	-0.172334	0.157289	-9.810565	-0.006105	0.000614	-0.004996			
24533	7191026	-0.172800	0.135995	-9.849381	-0.002934	0.001906	0.000584			
24534	7191051	-0.168592	0.135273	-9.831656	0.000273	0.001904	0.002629	179.710571	0.981216	-89.457756
24535	7191076	-0.171358	0.166861	-9.845562	-0.007969	-0.003362	-0.004306			
24536	7191101	-0.161239	0.149511	-9.827870	0.002858	-0.003880	-0.006646			
24537	7191126	-0.191289	0.160318	-9.837313	-0.007032	-0.002366	-0.002061			
24538	7191151	-0.176901	0.151988	-9.839299	-0.007381	-0.001211	-0.000319	179.710083	0.982522	-89.456825
24539	7191176	-0.156699	0.165117	-9.815435	-0.002931	-0.000419	-0.000073			
24540	7191201	-0.165929	0.188626	-9.836486	-0.007090	-0.000298	0.000072			
24541	7191226	-0.170574	0.162903	-9.805777	-0.005719	-0.003310	-0.000142			
24542	7191251	-0.171005	0.174559	-9.827822	-0.002013	0.001012	-0.001742	179.709808	0.982701	-89.457611
24543	7191276	-0.187617	0.183900	-9.856508	-0.006413	0.002487	-0.002480			
24544	7191301	-0.166641	0.123368	-9.821603	-0.006053	-0.003061	-0.002328			
24545	7191326	-0.203952	0.171452	-9.804177	-0.002806	0.003444	-0.007933			
24546	7191351	-0.183465	0.169310	-9.800446	-0.004762	0.003102	-0.001778	179.709244	0.981602	-89.456520
24547	7191376	-0.163394	0.176183	-9.827874	-0.007263	0.002986	-0.004081			
24548	7191401	-0.173302	0.164122	-9.823981	-0.006905	-0.000498	-0.003973			
24549	7191426	-0.181710	0.155616	-9.835920	-0.005358	-0.000656	-0.001472			
24550	7191451	-0.150508	0.169493	-9.817867	-0.004938	0.002451	-0.002617	179.708038	0.980743	-89.455826
24551	7191476	-0.171802	0.164290	-9.833579	-0.006709	0.003578	-0.004140			
24552	7191501	-0.138457	0.159183	-9.814088	-0.007708	0.004849	-0.003497			
24553	7191526	-0.186127	0.144844	-9.786522	-0.004233	0.002067	-0.006978			
24554	7191551	-0.179192	0.149550	-9.840244	-0.003985	0.002596	-0.002487	179.707108	0.978627	-89.454361
24555	7191576	-0.139118	0.174558	-9.827033	-0.005545	-0.000530	0.001147			
24556	7191601	-0.141737	0.150305	-9.827492	-0.003900	-0.004448	-0.002401			
24557	7191626	-0.161150	0.166559	-9.789531	-0.006305	0.003532	0.001368			
24558	7191651	-0.166293	0.172082	-9.811077	-0.007673	0.002082	0.000912	179.706039	0.978281	-89.455559
24559	7191676	-0.150775	0.150534	-9.815941	-0.006674	0.000802	-0.001216			
24560	7191701	-0.179848	0.149041	-9.808123	-0.003919	0.002599	-0.001590			
24561	7191726	-0.200541	0.160156	-9.802755	-0.007522	-0.000955	-0.002885			
24562	7191751	-0.173829	0.158419	-9.796172	-0.002138	0.002617	-0.007047	179.705429	0.977311	-89.454712
24563	7191776	-0.179752	0.174233	-9.808614	-0.005952	-0.002028	-0.001225			
24564	7191801	-0.192066	0.139635	-9.821478	-0.005141	-0.001498	-0.003922			
24565	7191826	-0.198480	0.161443	-9.828643	-0.003149	-0.001721	-0.003539			
24566	7191851	-0.164334	0.140352	-9.846072	-0.004221	-0.000583	-0.004618	179.705093	0.977902	-89.453796
24567	7191876	-0.172114	0.183988	-9.823035	-0.001533	-0.000148	-0.004499			
24568	7191901	-0.172731	0.156496	-9.817746	-0.011204	0.001943	-0.006190			
24569	7191926	-0.173014	0.131570	-9.804802	-0.006537	0.000294	-0.001788			
24570	7191951	-0.183330	0.163748	-9.810507	-0.003481	0.002994	-0.000052	179.704132	0.976929	-89.453049
24571	7191976	-0.176028	0.161900	-9.837387	-0.005978	0.002620	-0.004919			
24572	7192001	-0.160608	0.174711	-9.823568	-0.006980	-0.002044	-0.001863			
24573	7192026	-0.175643	0.149496	-9.802876	-0.004779	-0.000910	-0.004494			
24574	7192051	-0.165410	0.168140	-9.803417	-0.005175	-0.002208	-0.001231	179.703156	0.977048	-89.452339
24575	7192076	-0.177611	0.135794	-9.840732	-0.002359	-0.000480	-0.003086			
24576	7192101	-0.152493	0.163637	-9.809701	-0.001389	-0.002463	-0.000349			
24577	7192126	-0.179153	0.138987	-9.828745	-0.006343	0.000298	-0.001088			
24578	7192151	-0.179481	0.160709	-9.824912	-0.003289	-0.001401	-0.001742	179.703522	0.977379	-89.452469
24579	7192176	-0.159817	0.151146	-9.837469	-0.001232	-0.007948	-0.001141			
24580	7192201	-0.169438	0.162843	-9.831188	-0.004318	-0.001159	-0.003599			
24581	7192226	-0.175766	0.159990	-9.804317	-0.006090	0.000364	-0.001913			
24582	7192251	-0.173448	0.163152	-9.792344	-0.005354	0.000945	-0.008269	179.703400	0.978253	-89.451385
24583	7192276	-0.170705	0.150374	-9.825909	-0.002599	0.003529	-0.001656			
24584	7192301	-0.171725	0.148866	-9.818712	-0.005020	-0.001104	-0.002255			
24585	7192326	-0.172251	0.150631	-9.812967	-0.002405	-0.000924	-0.002064			
24586	7192351	-0.169967	0.152945	-9.807711	-0.001809	-0.002225	-0.007968	179.704010	0.978113	-89.450386
24587	7192376	-0.201285	0.191217	-9.820000	-0.004964	0.000827	-0.006215			
24588	7192401	-0.196203	0.166637	-9.819057	-0.008811	0.001411	-0.002351			
24589	7192426	-0.173321	0.149529	-9.799536	-0.009474	-0.002022	-0.001152			
24590	7192451	-0.166245	0.145573	-9.847979	-0.005406	-0.001247	-0.003472	179.702209	0.978016	-89.449493
24591	7192476	-0.169559	0.148535	-9.855626	-0.008217	0.003308	0.001693			
24592	7192501	-0.160907	0.159442	-9.820686	-0.003089	-0.001191	0.002359			
24593	7192526	-0.200499	0.165613	-9.817609	-0.007920	-0.000447	-0.003456			
24594	7192551	-0.158591	0.157758	-9.804403	0.000590	-0.000489	-0.001626	179.701813	0.977593	-89.450356
24595	7192576	-0.152595	0.152356	-9.847085	-0.003403	-0.001521	0.000566			
24596	7192601	-0.153019	0.166448	-9.808747	-0.000808	-0.004710	0.000471			
24597	7192626	-0.158297	0.138585	-9.820220	-0.003354	-0.005533	-0.001767			
24598	7192651	-0.168986	0.161263	-9.822564	-0.004230	0.000206	0.000638	179.702408	0.978995	-89.451385
24599	7192676	-0.185634	0.156271	-9.819124	-0.004718	-0.000915	-0.005968			
24600	7192701	-0.158465	0.145915	-9.801522	-0.005570	-0.002350	-0.005977			
24601	7192726	-0.182640	0.150762	-9.825845	-0.010370	0.000288	-0.000691			
24602	7192751	-0.177973	0.155004	-9.821557	-0.002612	0.001323	-0.005382	179.701370	0.978990	-89.449852
24603	7192776	-0.175839	0.170566	-9.812464	-0.006917	-0.001852	-0.003533			
24604	7192801	-0.162466	0.162509	-9.802940	-0.007454	0.000921	-0.001590			
24605	7192826	-0.179716	0.138232	-9.819632	0.000376	-0.001782	-0.000283			
24606	7192851	-0.166369	0.149195	-9.837918	-0.002316	-0.001305	0.003701	179.701324	0.979312	-89.450607
24607	7192876	-0.180552	0.143934	-9.846948	-0.003269	-0.000308	-0.005391			
24608	7192901	-0.176901	0.172419	-9.811981	-0.005877	-0.004604	-0.000915			
24609	7192926	-0.171994	0.143360	-9.836446	-0.002143	-0.000919	-0.000460			
24610	7192951	-0.152510	0.143592	-9.838456	0.002445	-0.002591	-0.002731	179.702347	0.980272	-89.450279
24611	7192976	-0.150197	0.147969	-9.833685	-0.007261	-0.000948	0.001344			
24612	7193001	-0.185256	0.169775	-9.830626	-0.007500	-0.001803	-0.005132			
24613	7193026	-0.194444	0.164022	-9.806134	-0.003269	-0.006115	-0.002152			
24614	7193051	-0.191916	0.160892	-9.814776	-0.007801	-0.002244	0.000508	179.700928	0.981613	-89.450462
24615	7193076	-0.170222	0.158357	-9.848920	-0.006537	0.000359	-0.000374			
24616	7193101	-0.154277	0.154442	-9.801064	-0.001982	-0.000086	-0.000975			
24617	7193126	-0.164155	0.141010	-9.794788	-0.004554	0.000130	-0.003333			
24618	7193151	-0.191966	0.138452	-9.833940	-0.010765	-0.001588	-0.000507	179.699814	0.981532	-89.450798
24619	7193176	-0.173200	0.155657	-9.832605	-0.002870	-0.004417	0.000741			
24620	7193201	-0.178812	0.183957	-9.822527	-0.006059	-0.000609	-0.001927			
24621	7193226	-0.175247	0.157024	-9.793767	-0.011393	0.003879	-0.006442			
24622	7193251	-0.191717	0.155829	-9.824842	-0.004816	0.002518	-0.001526	179.698502	0.981087	-89.450439
24623	7193276	-0.173713	0.162764	-9.826856	-0.007245	0.002010	-0.007227			
24624	7193301	-0.172301	0.154898	-9.812956	-0.003585	-0.000046	-0.001603			
24625	7193326	-0.184110	0.146561	-9.806659	0.000560	0.003007	0.002697			
24626	7193351	-0.167782	0.131740	-9.811057	-0.008593	-0.003429	0.000182	179.698074	0.980616	-89.450615
24627	7193376	-0.148170	0.144330	-9.847103	-0.003850	-0.000125	-0.005071			
24628	7193401	-0.178672	0.178418	-9.834984	-0.004043	-0.003670	-0.000796			
24629	7193426	-0.158211	0.137128	-9.814940	-0.006732	0.002152	-0.005886			
24630	7193451	-0.150202	0.110242	-9.823115	-0.002539	0.003923	0.002125	179.697906	0.980042	-89.450294
24631	7193476	-0.161261	0.155951	-9.836026	-0.007370	-0.001919	-0.001670			
24632	7193501	-0.173137	0.187403	-9.826383	-0.007160	-0.001709	0.006278			
24633	7193526	-0.160330	0.146399	-9.809182	-0.000165	-0.002632	-0.000283			
24634	7193551	-0.184877	0.162245	-9.800919	-0.008182	-0.002652	-0.005072	179.696915	0.981064	-89.451195
24635	7193576	-0.149172	0.135892	-9.820739	-0.007962	-0.000960	0.001025			
24636	7193601	-0.185525	0.143528	-9.820558	-0.007583	-0.005284	-0.002585			
24637	7193626	-0.169788	0.156320	-9.835978	-0.010049	-0.000100	-0.004672			
24638	7193651	-0.163960	0.147762	-9.833603	-0.006141	0.002177	0.000528	179.694641	0.981411	-89.451385
24639	7193676	-0.162230	0.160137	-9.832660	-0.009124	0.001083	-0.002354			
24640	7193701	-0.189883	0.170974	-9.855527	-0.001095	0.000650	0.002307			
24641	7193726	-0.163620	0.148925	-9.820198	-0.001116	-0.001167	-0.001685			
24642	7193751	-0.181395	0.159152	-9.818188	-0.003739	-0.003150	-0.001754	179.694763	0.981528	-89.451935
24643	7193776	-0.154014	0.166774	-9.860026	-0.005066	0.002584	0.000145			
24644	7193801	-0.175295	0.173282	-9.838835	-0.002865	-0.004548	0.001255			
24645	7193826	-0.201636	0.150683	-9.839652	-0.004140	-0.001293	-0.007957			
24646	7193851	-0.168760	0.146190	-9.828787	-0.004244	0.000918	0.000837	179.694717	0.981613	-89.452171
24647	7193876	-0.175612	0.157412	-9.824925	-0.001794	0.000052	0.000124			
24648	7193901	-0.196468	0.173640	-9.784555	-0.003773	0.001819	-0.005509			
24649	7193926	-0.159250	0.130325	-9.806791	-0.006528	-0.003839	0.001651			
24650	7193951	-0.166098	0.149600	-9.801005	-0.004791	0.002003	0.001229	179.694580	0.981354	-89.452858
24651	7193976	-0.186729	0.170678	-9.824383	-0.010690	-0.001910	-0.000186			
24652	7194001	-0.190153	0.185058	-9.843079	-0.004075	-0.002703	-0.002259			
24653	7194026	-0.180438	0.161158	-9.824428	-0.004618	-0.002003	-0.003283			
24654	7194051	-0.183303	0.160958	-9.814340	-0.002734	0.001654	0.000581	179.693680	0.981814	-89.453171
24655	7194076	-0.172010	0.184439	-9.853707	-0.001159	-0.003946	-0.001824			
24656	7194101	-0.165384	0.174948	-9.818749	-0.000603	-0.003095	-0.001505			
24657	7194126	-0.196087	0.154278	-9.820506	-0.002845	-0.003137	-0.001243			
24658	7194151	-0.154697	0.157980	-9.810650	-0.005287	0.003479	-0.001328	179.694565	0.982523	-89.453346
24659	7194176	-0.146146	0.174683	-9.842335	-0.005646	0.002235	-0.005244			
24660	7194201	-0.173233	0.184243	-9.804811	-0.006866	-0.001986	-0.006157			
24661	7194226	-0.182803	0.166972	-9.834477	-0.004682	-0.001742	-0.001612			
24662	7194251	-0.146043	0.154845	-9.819327	-0.004621	0.000317	-0.004427	179.693741	0.982449	-89.451881
24663	7194276	-0.150281	0.152048	-9.826009	-0.002286	-0.000466	0.000243			
24664	7194301	-0.160372	0.120087	-9.821640	-0.003506	-0.000431	-0.002065			
24665	7194326	-0.204652	0.164755	-9.834846	0.000139	0.001761	-0.002185			
24666	7194351	-0.166835	0.149102	-9.832633	-0.001545	0.002384	-0.001854	179.694992	0.981733	-89.452118
24667	7194376	-0.152481	0.143556	-9.830791	-0.002880	0.003903	-0.002424			
24668	7194401	-0.156514	0.160260	-9.836043	-0.007781	-0.002633	0.001527			
24669	7194426	-0.160549	0.130500	-9.821165	-0.001593	0.001600	-0.004105			
24670	7194451	-0.184645	0.163578	-9.833515	-0.001200	-0.000519	-0.002518	179.695374	0.981147	-89.452049
24671	7194476	-0.158707	0.156055	-9.849448	0.000277	0.003508	-0.002244			
24672	7194501	-0.178252	0.176314	-9.820126	-0.005262	0.000575	-0.001018			
24673	7194526	-0.188989	0.153700	-9.809044	-0.003761	-0.002238	0.001715			
24674	7194551	-0.167566	0.166652	-9.832643	-0.003117	-0.000624	-0.004049	179.695938	0.980721	-89.452240
24675	7194576	-0.172764	0.168080	-9.838837	-0.002280	0.001270	-0.002885			
24676	7194601	-0.168414	0.155843	-9.839829	-0.002995	-0.004824	-0.003877			
24677	7194626	-0.173894	0.170583	-9.813426	-0.008348	0.002837	-0.004011			
24678	7194651	-0.170380	0.132147	-9.842203	-0.003548	-0.001206	-0.001359	179.695786	0.980750	-89.451546
24679	7194676	-0.186928	0.150120	-9.820078	-0.006309	0.001396	-0.001465			
24680	7194701	-0.189717	0.159009	-9.787950	-0.001872	-0.006036	-0.005808			
24681	7194726	-0.156721	0.127150	-9.813993	-0.004944	-0.001550	-0.000782			
24682	7194751	-0.171308	0.155878	-9.813445	-0.004604	0.002269	0.000393	179.695526	0.981062	-89.451462
24683	7194776	-0.177997	0.168094	-9.842174	-0.004749	0.000513	-0.001539			
24684	7194801	-0.158479	0.155079	-9.813510	-0.002445	0.000428	-0.001353			
24685	7194826	-0.179605	0.154000	-9.788473	-0.009105	-0.001770	-0.006349			
24686	7194851	-0.180330	0.154501	-9.824417	-0.004578	-0.000831	0.000829	179.694839	0.981051	-89.451317
24687	7194876	-0.188037	0.148931	-9.803775	-0.004746	-0.003749	-0.000086			
24688	7194901	-0.175510	0.158133	-9.834991	-0.009257	0.003673	0.001250			
24689	7194926	-0.175379	0.130831	-9.819169	-0.007263	-0.005277	-0.000533			
24690	7194951	-0.174089	0.151554	-9.814866	-0.000732	0.004640	-0.007170	179.693970	0.980903	-89.451416
24691	7194976	-0.171233	0.158281	-9.842208	-0.007309	-0.001724	-0.001222			
24692	7195001	-0.179699	0.142018	-9.811001	-0.006291	0.002620	-0.003384			
24693	7195026	-0.192284	0.167800	-9.832996	-0.005858	0.005606	0.000034			
24694	7195051	-0.191047	0.175335	-9.826777	-0.005595	0.000295	-0.008391	179.692688	0.979684	-89.450577
24695	7195076	-0.177432	0.159176	-9.844086	-0.008284	-0.000767	0.001290			
24696	7195101	-0.175813	0.170188	-9.817745	-0.008592	-0.001955	-0.007758			
24697	7195126	-0.164973	0.146607	-9.824509	-0.000401	0.000532	-0.000650			
24698	7195151	-0.160161	0.174087	-9.815905	-0.003906	-0.002055	-0.002322	179.691940	0.980044	-89.450241
24699	7195176	-0.178039	0.152916	-9.810053	-0.004649	-0.000708	-0.000708			
24700	7195201	-0.160691	0.145307	-9.825002	-0.004533	-0.000779	-0.004236			
24701	7195226	-0.198345	0.155408	-9.836786	-0.002195	0.000760	0.000511			
24702	7195251	-0.167154	0.164730	-9.825928	-0.010060	-0.002038	-0.004676	179.691177	0.980192	-89.449982
24703	7195276	-0.154614	0.158338	-9.836539	-0.004609	-0.002334	-0.005727			
24704	7195301	-0.169885	0.149283	-9.813931	-0.005265	-0.003824	-0.002901			
24705	7195326	-0.157053	0.132793	-9.844660	-0.003193	0.001702	-0.002950			
24706	7195351	-0.180460	0.171801	-9.838806	-0.003016	0.000423	0.000131	179.691162	0.980523	-89.449310
24707	7195376	-0.178209	0.181213	-9.831625	-0.002556	0.002038	0.000134			
24708	7195401	-0.201906	0.173351	-9.835344	-0.001636	0.001214	-0.002952			
24709	7195426	-0.188922	0.148478	-9.809516	-0.003736	-0.000946	0.001660			
24710	7195451	-0.189631	0.145723	-9.843061	-0.005496	0.001332	-0.004923	179.691528	0.979751	-89.449501
24711	7195476	-0.167723	0.174760	-9.835042	-0.003383	-0.006565	-0.002414			
24712	7195501	-0.171070	0.163221	-9.800982	-0.000088	0.000392	-0.005974			
24713	7195526	-0.179679	0.176221	-9.816761	-0.000259	0.002208	-0.001985			
24714	7195551	-0.179215	0.175369	-9.823000	-0.001444	-0.000587	0.000820	179.693069	0.980155	-89.449173
24715	7195576	-0.179058	0.178519	-9.840248	-0.005724	0.001018	-0.001918			
24716	7195601	-0.156826	0.169399	-9.813519	-0.007905	-0.005099	-0.001498			
24717	7195626	-0.157959	0.144051	-9.805361	-0.004815	-0.003679	-0.000727			
24718	7195651	-0.184602	0.156886	-9.829185	-0.003229	0.000992	-0.002563	179.692245	0.980874	-89.449257
24719	7195676	-0.172274	0.159010	-9.827819	-0.006904	-0.002110	-0.000267			
24720	7195701	-0.181784	0.158814	-9.826819	-0.006522	0.001708	-0.004344			
24721	7195726	-0.184325	0.167690	-9.822009	-0.002106	-0.002082	0.000173			
24722	7195751	-0.176364	0.146124	-9.830194	-0.003301	0.001252	-0.001474	179.691849	0.980799	-89.449432
24723	7195776	-0.161209	0.137338	-9.804383	-0.002822	-0.003973	-0.001886			
24724	7195801	-0.178221	0.158762	-9.787527	-0.006329	-0.000089	-0.001086			
24725	7195826	-0.194048	0.171066	-9.799912	-0.003976	-0.001869	-0.003539			
24726	7195851	-0.163275	0.175859	-9.781865	-0.001760	-0.002719	0.001259	179.691986	0.981787	-89.449722
24727	7195876	-0.193793	0.163056	-9.831073	-0.007175	-0.004315	-0.004888			
24728	7195901	-0.195033	0.178763	-9.807571	-0.005269	-0.001433	-0.003403			
24729	7195926	-0.195127	0.168785	-9.840650	-0.003611	0.002789	-0.004989			
24730	7195951	-0.165124	0.153817	-9.828815	-0.004379	-0.004959	0.002922	179.691360	0.982673	-89.449326
24731	7195976	-0.159716	0.143404	-9.823088	-0.006431	0.000805	-0.003713			
24732	7196001	-0.170660	0.135912	-9.810559	-0.001335	-0.002395	-0.002718			
24733	7196026	-0.149421	0.154332	-9.823613	0.001541	-0.004280	-0.000232			
24734	7196051	-0.159058	0.141974	-9.855204	-0.003918	-0.001340	0.001016	179.692200	0.983455	-89.449547
24735	7196076	-0.180497	0.166784	-9.823942	-0.000252	-0.000513	-0.004439			
24736	7196101	-0.164770	0.159758	-9.814440	-0.002655	-0.000931	0.000374			
24737	7196126	-0.169939	0.157815	-9.814404	-0.004321	0.001633	0.002509			
24738	7196151	-0.162187	0.153885	-9.835534	0.001577	-0.003047	0.000797	179.693665	0.983609	-89.450462
24739	7196176	-0.161065	0.145106	-9.844652	-0.003175	-0.003144	-0.004637			
24740	7196201	-0.176109	0.165130	-9.831159	-0.005212	0.000504	-0.004482			
24741	7196226	-0.162525	0.136790	-9.827860	-0.008376	-0.002453	-0.000708			
24742	7196251	-0.151995	0.141232	-9.833191	-0.003602	0.000402	-0.001991	179.693024	0.984035	-89.449722
24743	7196276	-0.143716	0.159250	-9.824131	-0.004847	-0.000587	-0.003088			
24744	7196301	-0.162139	0.112524	-9.824024	-0.005059	-0.000274	-0.006288			
24745	7196326	-0.170814	0.150210	-9.812485	-0.007164	0.003761	-0.004843			
24746	7196351	-0.179632	0.139038	-9.831134	-0.007665	-0.000308	0.000648	179.691803	0.983419	-89.448784
24747	7196376	-0.175577	0.155554	-9.826849	-0.003606	-0.001405	-0.003155			
24748	7196401	-0.181727	0.158016	-9.833047	-0.006054	-0.000866	-0.003213			
24749	7196426	-0.189350	0.131554	-9.786983	-0.009446	-0.002398	0.004809			
24750	7196451	-0.165236	0.161261	-9.817795	-0.005226	-0.001115	-0.005196	179.690598	0.983996	-89.448845
24751	7196476	-0.167986	0.164499	-9.847501	-0.003275	-0.003916	-0.002398			
24752	7196501	-0.189785	0.183996	-9.810962	0.001359	0.001788	-0.000714			
24753	7196526	-0.183112	0.155002	-9.826809	-0.004892	0.002903	-0.001845			
24754	7196551	-0.180421	0.167978	-9.834975	-0.005095	0.003482	-0.000557	179.691177	0.983134	-89.449112
24755	7196576	-0.180270	0.177631	-9.815325	-0.002815	-0.006363	-0.001451			
24756	7196601	-0.157431	0.154558	-9.840354	-0.002348	-0.004935	-0.003177			
24757	7196626	-0.177401	0.156167	-9.836416	-0.005482	0.001276	-0.002298			
24758	7196651	-0.194690	0.171324	-9.849760	-0.005281	-0.001247	-0.005585	179.691193	0.984502	-89.448418
24759	7196676	-0.181539	0.178418	-9.832091	-0.008982	0.000301	-0.005753			
24760	7196701	-0.198049	0.159061	-9.825296	-0.007798	-0.004382	-0.000909			
24761	7196726	-0.176762	0.160934	-9.806707	-0.001684	-0.005108	0.004256			
24762	7196751	-0.164021	0.157629	-9.860936	-0.004105	-0.004068	-0.003873	179.690247	0.986150	-89.448517
24763	7196776	-0.132422	0.143661	-9.851978	-0.002259	-0.001369	0.000240			
24764	7196801	-0.178005	0.156892	-9.824440	-0.002979	-0.002946	-0.001752			
24765	7196826	-0.203932	0.161949	-9.803208	-0.003073	-0.001968	-0.000715			
24766	7196851	-0.165168	0.167662	-9.831694	-0.006384	-0.000551	-0.003660	179.690414	0.986878	-89.448692
24767	7196876	-0.167889	0.162550	-9.842693	-0.004396	0.003825	0.002071			
24768	7196901	-0.176408	0.168971	-9.801437	-0.005953	-0.003764	0.001328			
24769	7196926	-0.193498	0.163446	-9.799918	-0.002645	-0.003515	-0.001431			
24770	7196951	-0.163098	0.155028	-9.842243	-0.006446	-0.002681	-0.002325	179.689896	0.987501	-89.449692
24771	7196976	-0.166039	0.166018	-9.849421	-0.006841	-0.000364	-0.001986			
24772	7197001	-0.168813	0.181565	-9.815386	-0.004034	-0.001931	-0.001876			
24773	7197026	-0.183524	0.145665	-9.833510	-0.009619	-0.001703	-0.002301			
24774	7197051	-0.171180	0.153417	-9.838371	-0.004901	-0.000779	-0.001229	179.688553	0.987935	-89.449669
24775	7197076	-0.177839	0.153764	-9.835468	-0.005253	-0.000015	-0.005260			
24776	7197101	-0.166127	0.161798	-9.825449	-0.002611	-0.000948	-0.007637			
24777	7197126	-0.154509	0.134168	-9.805867	-0.004128	-0.003420	-0.005342			
24778	7197151	-0.178233	0.144293	-9.831622	-0.009169	0.000431	-0.005054	179.687851	0.988263	-89.447380
24779	7197176	-0.149365	0.165186	-9.848552	-0.001623	-0.001496	-0.001812			
24780	7197201	-0.157976	0.151824	-9.811106	-0.010222	0.001515	-0.002156			
24781	7197226	-0.156046	0.139298	-9.800578	-0.010109	-0.004360	-0.003409			
24782	7197251	-0.177278	0.138884	-9.819642	-0.007524	0.001174	-0.001268	179.685913	0.988468	-89.447151
24783	7197276	-0.168613	0.162960	-9.811550	-0.000848	0.000188	-0.004497			
24784	7197301	-0.175717	0.158638	-9.809110	-0.006121	-0.000802	-0.002117			
24785	7197326	-0.200595	0.176669	-9.830555	-0.003715	-0.003922	-0.001816			
24786	7197351	-0.155389	0.152936	-9.853307	-0.007187	-0.001861	-0.004683	179.685654	0.989138	-89.446373
24787	7197376	-0.173844	0.173244	-9.831646	-0.006229	0.000484	-0.002497			
24788	7197401	-0.209876	0.191189	-9.820927	-0.009324	-0.002728	-0.001989			
24789	7197426	-0.180549	0.168740	-9.820589	-0.008045	-0.000905	-0.004160			
24790	7197451	-0.187212	0.182436	-9.856513	-0.003783	-0.003661	0.001201	179.684036	0.989864	-89.446304
24791	7197476	-0.171965	0.166888	-9.821597	-0.003944	-0.002892	-0.000529			
24792	7197501	-0.170881	0.159487	-9.830228	-0.003079	-0.004107	-0.002787			
24793	7197526	-0.171826	0.129149	-9.831164	-0.009151	0.002056	-0.001456			
24794	7197551	-0.195692	0.156103	-9.816202	-0.003394	-0.002307	-0.003025	179.683502	0.990651	-89.446259
24795	7197576	-0.147942	0.151078	-9.818830	-0.008678	-0.002787	-0.001483			
24796	7197601	-0.171852	0.160276	-9.826385	-0.000741	-0.003104	-0.003615			
24797	7197626	-0.172281	0.142785	-9.794735	-0.001587	-0.000653	-0.003281			
24798	7197651	-0.174579	0.162456	-9.839784	-0.007640	0.003250	0.001822	179.683121	0.990873	-89.446312
24799	7197676	-0.151967	0.151971	-9.852842	-0.006381	0.001724	0.001480			
24800	7197701	-0.155696	0.138988	-9.843230	-0.003432	0.003514	0.001554			
24801	7197726	-0.190472	0.170619	-9.834921	-0.003977	0.002269	-0.002682			
24802	7197751	-0.179153	0.182691	-9.835457	-0.002094	0.001535	-0.003013	179.683121	0.989323	-89.446968
24803	7197776	-0.168531	0.164788	-9.833590	-0.004379	-0.003290	-0.002456			
24804	7197801	-0.189932	0.159578	-9.822938	-0.002868	-0.002486	-0.001621			
24805	7197826	-0.187285	0.129965	-9.809993	-0.000720	-0.001945	-0.005087			
24806	7197851	-0.174330	0.172647	-9.828770	-0.000648	0.000130	-0.003731	179.684189	0.990164	-89.446182
24807	7197876	-0.164799	0.163100	-9.815399	-0.004344	-0.000581	-0.004168			
24808	7197901	-0.153062	0.134597	-9.797231	-0.010769	0.001945	-0.010110			
24809	7197926	-0.179679	0.159603	-9.784643	-0.005186	-0.000209	-0.005065			
24810	7197951	-0.172228	0.157523	-9.824936	-0.007233	0.004549	0.001697	179.682556	0.989105	-89.444702
24811	7197976	-0.148669	0.135409	-9.822188	-0.004342	-0.000124	0.000378			
24812	7198001	-0.180405	0.162617	-9.826348	-0.005701	0.000247	0.000836			
24813	7198026	-0.213004	0.162693	-9.795019	-0.006627	-0.000545	0.001733			
24814	7198051	-0.179031	0.163556	-9.828267	-0.000556	-0.004900	-0.002025	179.682343	0.989610	-89.445862
24815	7198076	-0.148948	0.161183	-9.833692	-0.002192	-0.001508	-0.001432			
24816	7198101	-0.192515	0.162637	-9.808065	-0.002901	-0.005263	0.000291			
24817	7198126	-0.183141	0.146640	-9.809547	-0.002743	0.001718	-0.001538			
24818	7198151	-0.175196	0.162223	-9.824935	-0.006951	-0.000684	-0.001666	179.682510	0.990179	-89.446266
24819	7198176	-0.197196	0.169113	-9.829613	-0.005308	-0.002602	-0.004883			
24820	7198201	-0.198018	0.163901	-9.828164	-0.009967	-0.000480	0.000072			
24821	7198226	-0.179701	0.131448	-9.803329	-0.003587	-0.000377	-0.005646			
24822	7198251	-0.186472	0.153139	-9.832541	-0.003269	-0.001907	0.000496	179.681641	0.990699	-89.445847
24823	7198276	-0.175713	0.161164	-9.819654	-0.005136	-0.003760	-0.003356			
24824	7198301	-0.203596	0.188487	-9.831020	-0.004628	-0.001612	-0.001927			
24825	7198326	-0.201621	0.174846	-9.809939	-0.000262	-0.001590	0.001970			
24826	7198351	-0.166985	0.153257	-9.827840	0.000185	-0.001791	-0.000916	179.682510	0.991700	-89.446289
24827	7198376	-0.172935	0.142371	-9.826372	-0.007501	0.002734	-0.000046			
24828	7198401	-0.170308	0.160952	-9.836944	-0.001268	0.003873	0.000267			
24829	7198426	-0.186833	0.151830	-9.839724	-0.005350	0.001149	-0.002940			
24830	7198451	-0.176481	0.149306	-9.820609	-0.005965	0.000164	-0.003456	179.681915	0.990314	-89.446442
24831	7198476	-0.173748	0.155983	-9.822538	-0.003603	-0.003861	-0.003612			
24832	7198501	-0.181948	0.168746	-9.828732	-0.001965	-0.002801	-0.003289			
24833	7198526	-0.201532	0.157470	-9.787886	-0.002556	-0.000291	-0.004624			
24834	7198551	-0.177213	0.162313	-9.804785	-0.002135	0.000688	-0.002310	179.682739	0.990966	-89.445457
24835	7198576	-0.172492	0.160004	-9.801455	-0.007179	-0.003922	-0.003991			
24836	7198601	-0.172930	0.171095	-9.818713	-0.002684	0.000036	-0.000712			
24837	7198626	-0.198977	0.160356	-9.820020	-0.002342	0.001070	-0.004233			
24838	7198651	-0.182682	0.167651	-9.847420	-0.005351	0.003417	0.000082	179.682510	0.990630	-89.445259
24839	7198676	-0.152654	0.163892	-9.852359	-0.006494	-0.001393	-0.004691			
24840	7198701	-0.168484	0.161753	-9.820162	-0.006312	0.003260	-0.004146			
24841	7198726	-0.173640	0.155620	-9.826379	-0.006519	0.001775	-0.002998			
24842	7198751	-0.184407	0.173447	-9.821531	-0.005300	-0.000526	-0.002882	179.681290	0.989939	-89.444183
24843	7198776	-0.137588	0.167489	-9.830389	-0.005108	-0.000328	-0.001545			
24844	7198801	-0.189007	0.177260	-9.858414	-0.006424	-0.001650	-0.004104			
24845	7198826	-0.168128	0.164069	-9.817299	-0.004229	-0.001933	-0.002831			
24846	7198851	-0.140246	0.159983	-9.838527	-0.005524	0.002632	-0.002873	179.680542	0.989875	-89.443626
24847	7198876	-0.150076	0.143696	-9.833674	-0.006896	0.005509	-0.004649			
24848	7198901	-0.155969	0.146637	-9.815918	-0.006737	0.002415	-0.003187			
24849	7198926	-0.184636	0.152330	-9.813368	-0.000648	0.000532	0.001273			
24850	7198951	-0.169750	0.155039	-9.847489	-0.005592	-0.003242	0.000882	179.679977	0.988877	-89.443825
24851	7198976	-0.173129	0.197154	-9.847479	-0.002220	-0.000735	-0.002253			
24852	7199001	-0.154145	0.153846	-9.819285	-0.004858	-0.000066	-0.000006			
24853	7199026	-0.177607	0.161940	-9.813422	-0.001997	0.002566	-0.002174			
24854	7199051	-0.160516	0.134067	-9.835061	-0.004067	-0.003152	-0.001495	179.680374	0.988823	-89.443985
24855	7199076	-0.150722	0.169807	-9.869639	-0.001955	-0.001118	-0.003800			
24856	7199101	-0.157303	0.173638	-9.815911	-0.001898	-0.002865	-0.002779			
24857	7199126	-0.177841	0.148420	-9.827314	-0.004315	0.001042	-0.000702			
24858	7199151	-0.150739	0.153044	-9.827445	-0.005479	0.001279	0.000001	179.680710	0.988811	-89.443932
24859	7199176	-0.177253	0.172064	-9.818682	-0.006990	0.000276	-0.002684			
24860	7199201	-0.186038	0.188981	-9.817687	-0.007194	0.001191	0.000657			
24861	7199226	-0.171725	0.158445	-9.827817	-0.003098	0.004937	-0.001520			
24862	7199251	-0.156260	0.139173	-9.827417	-0.001597	0.001729	-0.004551	179.680283	0.987396	-89.443741
24863	7199276	-0.155510	0.159894	-9.846597	-0.002231	-0.000933	-0.006039			
24864	7199301	-0.166378	0.134892	-9.800041	-0.004457	0.003296	-0.003511			
24865	7199326	-0.191642	0.162828	-9.787455	-0.005387	-0.003690	-0.001107			
24866	7199351	-0.176234	0.175544	-9.835464	-0.000788	0.001115	0.002877	179.680740	0.987176	-89.443596
24867	7199376	-0.166962	0.155748	-9.830724	-0.004974	0.001150	-0.005442			
24868	7199401	-0.186941	0.170983	-9.789888	-0.003742	-0.001077	-0.001417			
24869	7199426	-0.182289	0.156250	-9.815788	-0.004096	0.003746	-0.005946			
24870	7199451	-0.192134	0.146011	-9.837790	-0.002460	-0.007851	-0.006713	179.680862	0.987512	-89.441856
24871	7199476	-0.156392	0.157069	-9.847544	-0.004740	0.000396	0.002691			
24872	7199501	-0.168248	0.173944	-9.811060	-0.006373	0.003129	-0.002609			
24873	7199526	-0.188939	0.147513	-9.809998	-0.002488	-0.002949	-0.009315			
24874	7199551	-0.177382	0.153286	-9.835945	-0.002225	-0.000404	-0.000528	179.680893	0.987239	-89.441475
24875	7199576	-0.161726	0.166017	-9.851360	-0.000793	0.000511	-0.003152			
24876	7199601	-0.160731	0.141682	-9.806304	-0.005272	0.000499	-0.004743			
24877	7199626	-0.175937	0.138763	-9.813420	-0.005767	0.000177	-0.001466			
24878	7199651	-0.142365	0.156076	-9.804476	-0.000180	-0.000836	-0.007713	179.681473	0.986945	-89.440063
24879	7199676	-0.151562	0.150359	-9.837990	-0.005199	0.002308	-0.005186			
24880	7199701	-0.179686	0.167554	-9.804782	-0.005192	-0.002149	-0.006101			
24881	7199726	-0.184403	0.132519	-9.817205	-0.005384	0.000115	-0.002240			
24882	7199751	-0.185184	0.167824	-9.830153	-0.004399	0.001758	0.001480	179.680893	0.986407	-89.439362
24883	7199776	-0.186703	0.178886	-9.842129	-0.001524	0.001605	-0.002243			
24884	7199801	-0.154985	0.141889	-9.811118	-0.009501	0.000948	-0.002362			
24885	7199826	-0.176065	0.148217	-9.815817	-0.000633	-0.004117	0.001636			
24886	7199851	-0.171489	0.181425	-9.840774	-0.001839	0.001073	-0.006929	179.681244	0.986228	-89.438950
24887	7199876	-0.156526	0.173845	-9.854261	-0.006871	0.003001	-0.001465			
24888	7199901	-0.172969	0.153655	-9.792347	-0.006361	-0.005198	-0.000352			
24889	7199926	-0.177958	0.142446	-9.807653	-0.005260	-0.005890	-0.003050			
24890	7199951	-0.151699	0.153560	-9.832232	-0.005093	-0.000459	0.000378	179.680145	0.987199	-89.439293
24891	7199976	-0.153088	0.147453	-9.835580	-0.003371	-0.005218	-0.005685			
24892	7200001	-0.164098	0.154905	-9.831694	-0.007321	-0.001609	-0.007002			
24893	7200026	-0.155353	0.141174	-9.831738	-0.002979	0.000799	-0.003532			
24894	7200051	-0.183253	0.158203	-9.817216	-0.007132	0.000855	-0.003847	179.679474	0.987700	-89.437370
24895	7200076	-0.161215	0.154571	-9.841301	-0.007203	-0.003013	-0.000018			
24896	7200101	-0.175790	0.165788	-9.807197	-0.008447	0.000128	-0.001925			
24897	7200126	-0.175773	0.136734	-9.836905	-0.005955	-0.000356	-0.004813			
24898	7200151	-0.153568	0.156010	-9.839420	-0.003910	0.000402	-0.001231	179.678116	0.987856	-89.437263
24899	7200176	-0.161472	0.178262	-9.843211	-0.001779	-0.000337	-0.000401			
24900	7200201	-0.177313	0.145056	-9.823477	-0.002813	0.001965	-0.003463			
24901	7200226	-0.183191	0.155539	-9.829197	-0.005689	-0.000477	-0.004686			
24902	7200251	-0.176689	0.179651	-9.847459	-0.008947	0.001204	-0.007102	179.677658	0.987274	-89.436005
24903	7200276	-0.177956	0.191597	-9.825888	-0.005828	-0.002100	-0.004698			
24904	7200301	-0.168632	0.124947	-9.809134	-0.001928	-0.001833	-0.003359			
24905	7200326	-0.216849	0.165539	-9.796916	-0.005378	-0.000013	-0.002629			
24906	7200351	-0.152293	0.153866	-9.819773	-0.004706	-0.002839	0.001323	179.677399	0.987997	-89.435654
24907	7200376	-0.154687	0.151812	-9.812090	-0.004637	-0.003172	-0.002719			
24908	7200401	-0.182450	0.163676	-9.803801	-0.004067	0.001036	-0.005069			
24909	7200426	-0.170247	0.154227	-9.827828	-0.005612	0.003533	-0.003000			
24910	7200451	-0.143558	0.152771	-9.839475	-0.001940	-0.001642	-0.004704	179.677383	0.987787	-89.434494
24911	7200476	-0.184408	0.181199	-9.837834	-0.003260	-0.000308	-0.003986			
24912	7200501	-0.191396	0.199449	-9.825334	-0.002730	-0.002813	-0.004131			
24913	7200526	-0.210815	0.193057	-9.820434	-0.007759	0.000587	-0.003777			
24914	7200551	-0.197705	0.186463	-9.851180	-0.003538	0.000463	-0.003660	179.677216	0.987839	-89.433304
24915	7200576	-0.163792	0.167221	-9.836976	-0.000840	-0.004202	-0.005688			
24916	7200601	-0.166150	0.160265	-9.819696	-0.001502	-0.003181	-0.003108			
24917	7200626	-0.195012	0.173438	-9.802786	-0.003263	-0.002050	-0.003290			
24918	7200651	-0.182360	0.168830	-9.832560	-0.004540	0.000462	0.003456	179.678040	0.988874	-89.433067
24919	7200676	-0.177263	0.170135	-9.816302	-0.006433	-0.003469	-0.007842			
24920	7200701	-0.174672	0.149399	-9.794736	-0.004017	0.003490	-0.006400			
24921	7200726	-0.176624	0.153344	-9.810063	-0.002927	-0.002752	-0.003359			
24922	7200751	-0.168174	0.163416	-9.871943	-0.000988	0.002766	-0.006031	179.678299	0.988631	-89.430710
24923	7200776	-0.164218	0.172215	-9.853272	-0.001213	-0.002402	-0.003046			
24924	7200801	-0.183603	0.148873	-9.828719	-0.004733	-0.003803	0.004075			
24925	7200826	-0.159989	0.113481	-9.787605	-0.011499	0.003296	-0.004143			
24926	7200851	-0.163019	0.152630	-9.841286	-0.004655	0.001480	-0.002566	179.677414	0.988584	-89.430885
24927	7200876	-0.167911	0.158238	-9.838860	-0.004081	0.000013	0.001721			
24928	7200901	-0.180780	0.142428	-9.809080	-0.006266	-0.002360	-0.003542			
24929	7200926	-0.184338	0.168631	-9.819613	-0.004005	-0.000693	0.001204			
24930	7200951	-0.168980	0.165718	-9.833107	-0.005378	-0.000216	-0.004752	179.676865	0.988797	-89.431175
24931	7200976	-0.182800	0.199172	-9.825380	-0.008169	-0.000642	-0.001150			
24932	7201001	-0.183031	0.163978	-9.790376	-0.007559	0.000399	-0.001089			
24933	7201026	-0.169530	0.121127	-9.805290	-0.003335	0.000408	-0.000784			
24934	7201051	-0.168192	0.183418	-9.838871	-0.007634	0.002921	-0.000751	179.675323	0.988101	-89.431694
24935	7201076	-0.144596	0.152342	-9.834188	-0.010386	-0.005598	-0.001949			
24936	7201101	-0.174244	0.157112	-9.803843	-0.003202	0.004350	-0.002486			
24937	7201126	-0.175983	0.152772	-9.831640	-0.004160	-0.002128	-0.004382			
24938	7201151	-0.146518	0.156444	-9.832745	-0.001036	-0.002018	-0.005735	179.674942	0.988628	-89.430588
24939	7201176	-0.150183	0.152835	-9.841832	-0.007655	-0.000830	-0.002320			
24940	7201201	-0.140824	0.150504	-9.807843	-0.004295	0.004134	-0.004669			
24941	7201226	-0.140492	0.154232	-9.804019	-0.004070	-0.004569	0.002334			
24942	7201251	-0.156398	0.150178	-9.831249	-0.002861	0.003587	-0.000507	179.674515	0.988043	-89.430809
24943	7201276	-0.148900	0.161654	-9.831290	-0.004330	0.001824	0.003010			
24944	7201301	-0.153074	0.130639	-9.791480	-0.004409	-0.000525	-0.007069			
24945	7201326	-0.199093	0.167898	-9.817142	-0.002889	0.002420	-0.003073			
24946	7201351	-0.179646	0.176364	-9.824429	-0.005139	0.000373	-0.002442	179.674393	0.987207	-89.430489
24947	7201376	-0.136792	0.133633	-9.815052	-0.008905	-0.001229	0.003263			
24948	7201401	-0.179734	0.168205	-9.788960	-0.003020	0.002414	-0.002949			
24949	7201426	-0.175050	0.139393	-9.797126	-0.000845	0.000639	-0.002259			
24950	7201451	-0.146342	0.153482	-9.852395	-0.005166	-0.000927	-0.005527	179.674118	0.986827	-89.430374
24951	7201476	-0.165880	0.168118	-9.802936	-0.002819	0.000228	-0.000714			
24952	7201501	-0.161159	0.150134	-9.832190	-0.004241	0.000519	-0.003088			
24953	7201526	-0.197138	0.149168	-9.800377	-0.002721	-0.004934	0.000413			
