// General information: 
//  MT Manager version: 2022.0.0 
//  XDA version: 2022.0.0 build 7085 rev 119802 built on 2022-11-08
// Device information: 
//  DeviceId: 037004D1
//  ProductCode: MTi-300-2A5G4
//  Firmware Version: 1.4.1
//  Hardware Version: 2.1.0
// Device settings: 
//  Filter Profile: general(39.16)
//  Option Flags: Orientation Smoother Disabled, Position/Velocity Smoother Disabled, Continuous Zero Rotation Update Disabled, AHS Disabled, ICC Disabled
// Coordinate system: ENU
PacketCounter	SampleTimeFine	Acc_X	Acc_Y	Acc_Z	Gyr_X	Gyr_Y	Gyr_Z	Roll	Pitch	Yaw
58549	6403026	-0.169091	-0.058069	9.803599	-0.000076	-0.000034	-0.000747			
58550	6403051	-0.154918	-0.059673	9.826541	-0.002588	-0.001487	0.003298	-0.254731	0.994571	-125.515259
58551	6403076	-0.183918	-0.062182	9.812782	-0.004788	0.003707	0.003265			
58552	6403101	-0.153577	-0.083630	9.813602	-0.000164	-0.003390	-0.001080			
58553	6403126	-0.153310	-0.070430	9.816467	-0.003192	0.001268	-0.001495			
58554	6403151	-0.172956	-0.061679	9.820403	-0.001150	-0.002837	-0.003123	-0.253398	0.994643	-125.506134
58555	6403176	-0.176933	-0.061177	9.838639	-0.009099	-0.000133	-0.002453			
58556	6403201	-0.177964	-0.058452	9.850148	-0.006160	0.002055	-0.001544			
58557	6403226	-0.179641	-0.050623	9.801256	-0.004756	-0.000519	-0.007974			
58558	6403251	-0.179676	-0.055600	9.815639	-0.008279	-0.001791	-0.001308	-0.254814	0.994828	-125.495544
58559	6403276	-0.188660	-0.057558	9.809452	-0.008640	-0.002448	-0.001119			
58560	6403301	-0.166740	-0.059256	9.814143	-0.009593	-0.002590	0.000425			
58561	6403326	-0.176712	-0.053704	9.789265	-0.002973	0.000569	0.002664			
58562	6403351	-0.154328	-0.055872	9.795861	-0.001913	0.001688	0.002731	-0.255444	0.994683	-125.482567
58563	6403376	-0.157170	-0.063301	9.811698	-0.007093	0.001395	0.001210			
58564	6403401	-0.160544	-0.060312	9.804040	0.000586	0.001203	-0.002401			
58565	6403426	-0.164883	-0.042067	9.786798	0.000370	-0.002225	-0.001843			
58566	6403451	-0.186992	-0.033101	9.800339	-0.004655	-0.001416	-0.004385	-0.254339	0.994780	-125.472610
58567	6403476	-0.193373	-0.032555	9.821451	-0.002344	0.000635	-0.003041			
58568	6403501	-0.164074	-0.039879	9.798776	0.000671	0.002232	-0.005350			
58569	6403526	-0.184493	-0.042121	9.804165	-0.000393	-0.000300	-0.001636			
58570	6403551	-0.176978	-0.029615	9.797402	-0.002863	-0.005113	0.001678	-0.252396	0.994657	-125.460083
58571	6403576	-0.160193	-0.050010	9.811711	-0.002153	-0.001693	-0.006004			
58572	6403601	-0.171111	-0.038943	9.791620	-0.003468	-0.004691	-0.004861			
58573	6403626	-0.187280	-0.046765	9.789799	-0.006455	0.001074	-0.004309			
58574	6403651	-0.177686	-0.055635	9.794538	-0.001657	0.003359	-0.001681	-0.251735	0.994619	-125.452423
58575	6403676	-0.169700	-0.059243	9.816556	-0.002643	0.003919	-0.005777			
58576	6403701	-0.155356	-0.056712	9.815514	-0.002623	-0.000140	0.002213			
58577	6403726	-0.170686	-0.041969	9.801216	-0.004876	-0.002319	-0.002152			
58578	6403751	-0.178852	-0.033802	9.784005	-0.008669	0.004262	-0.005499	-0.251788	0.995679	-125.441330
58579	6403776	-0.191357	-0.035757	9.812820	-0.006384	-0.001581	-0.008553			
58580	6403801	-0.178390	-0.012162	9.830481	-0.006591	-0.000738	-0.003543			
58581	6403826	-0.177885	-0.034792	9.795016	-0.003186	-0.000933	-0.001246			
58582	6403851	-0.178296	-0.054137	9.814683	-0.006722	0.001724	-0.001037	-0.252430	0.995707	-125.435020
58583	6403876	-0.184531	-0.031997	9.791697	-0.003409	-0.002158	-0.001702			
58584	6403901	-0.150591	-0.050199	9.801592	-0.001635	-0.003883	-0.005439			
58585	6403926	-0.171803	-0.043260	9.821831	-0.007656	0.000469	-0.005080			
58586	6403951	-0.169836	-0.041533	9.806001	-0.004613	0.001632	-0.000848	-0.252273	0.995389	-125.428337
58587	6403976	-0.142831	-0.028985	9.814006	-0.002633	-0.000472	-0.001764			
58588	6404001	-0.163365	-0.030721	9.818904	-0.003096	0.001970	-0.005211			
58589	6404026	-0.137365	-0.048259	9.803919	-0.007793	0.002724	-0.006738			
58590	6404051	-0.142455	-0.054948	9.802990	-0.008887	0.000969	-0.002891	-0.252853	0.996377	-125.422508
58591	6404076	-0.158049	-0.061165	9.795885	-0.005788	0.000317	-0.000593			
58592	6404101	-0.133644	-0.049564	9.830271	-0.007087	0.000675	-0.003923			
58593	6404126	-0.158797	-0.053544	9.821771	-0.008793	0.000401	0.000118			
58594	6404151	-0.181598	-0.050271	9.807979	-0.006351	0.000244	0.001399	-0.254204	0.996864	-125.413055
58595	6404176	-0.178988	-0.064253	9.794557	-0.002912	0.000757	0.001901			
58596	6404201	-0.188935	-0.039452	9.807054	-0.008224	0.002667	-0.001535			
58597	6404226	-0.187267	-0.057098	9.817123	-0.004689	-0.000182	-0.002262			
58598	6404251	-0.160892	-0.069032	9.811711	-0.005192	-0.002581	-0.003433	-0.254558	0.997204	-125.402084
58599	6404276	-0.150448	-0.063706	9.810222	-0.004874	-0.004384	-0.001527			
58600	6404301	-0.166095	-0.069593	9.815581	-0.003780	-0.004822	-0.002934			
58601	6404326	-0.177704	-0.059405	9.818984	-0.005947	-0.004916	-0.000496			
58602	6404351	-0.190781	-0.037467	9.802282	-0.006312	-0.001048	0.001319	-0.254892	0.995275	-125.387779
58603	6404376	-0.171802	-0.065539	9.790688	-0.004283	0.001378	-0.000082			
58604	6404401	-0.169580	-0.061546	9.813195	-0.003332	-0.000544	-0.000603			
58605	6404426	-0.172252	-0.054388	9.839575	-0.002846	0.002696	-0.000399			
58606	6404451	-0.175338	-0.064736	9.823768	-0.009482	0.000200	0.002488	-0.255075	0.996064	-125.379173
58607	6404476	-0.179494	-0.077553	9.826194	-0.004347	0.001246	-0.003353			
58608	6404501	-0.165945	-0.078012	9.803121	-0.008306	-0.001220	-0.002007			
58609	6404526	-0.172029	-0.063195	9.823279	-0.005598	0.000185	-0.004640			
58610	6404551	-0.169956	-0.069288	9.816074	-0.009586	-0.003174	-0.002143	-0.256422	0.995882	-125.369408
58611	6404576	-0.179204	-0.056578	9.819471	-0.004861	-0.000831	-0.002848			
58612	6404601	-0.173817	-0.093687	9.797412	-0.006324	-0.002989	-0.001061			
58613	6404626	-0.192373	-0.066412	9.797974	-0.006726	0.005588	-0.005306			
58614	6404651	-0.174755	-0.050726	9.779189	-0.007369	0.001709	-0.001480	-0.257399	0.996626	-125.362076
58615	6404676	-0.167608	-0.069614	9.811274	-0.006618	0.002436	-0.000778			
58616	6404701	-0.161300	-0.076754	9.818910	-0.007278	-0.001526	-0.004318			
58617	6404726	-0.192311	-0.073752	9.813784	-0.005795	-0.000083	-0.008160			
58618	6404751	-0.163481	-0.077703	9.787285	-0.004008	-0.001326	0.000225	-0.258157	0.996792	-125.349777
58619	6404776	-0.188305	-0.047045	9.807532	-0.006759	-0.001125	-0.000665			
58620	6404801	-0.173391	-0.055169	9.801699	0.002009	-0.001422	-0.000881			
58621	6404826	-0.158536	-0.069081	9.816969	-0.002317	-0.002664	-0.005819			
58622	6404851	-0.181300	-0.045901	9.833384	-0.003077	-0.000678	-0.003815	-0.256967	0.996194	-125.341011
58623	6404876	-0.174867	-0.062686	9.815619	-0.009458	0.001155	-0.000265			
58624	6404901	-0.170166	-0.055012	9.817033	-0.004254	0.000735	0.000945			
58625	6404926	-0.166034	-0.071614	9.794484	0.000042	0.002161	-0.000863			
58626	6404951	-0.188367	-0.070969	9.788852	-0.006017	-0.000329	0.001775	-0.257114	0.996973	-125.326447
58627	6404976	-0.181331	-0.037979	9.811819	-0.006416	-0.000152	-0.004639			
58628	6405001	-0.164186	-0.063158	9.799750	-0.001226	-0.004642	-0.002624			
58629	6405026	-0.171890	-0.073011	9.817046	-0.002721	0.000568	-0.001247			
58630	6405051	-0.180493	-0.056185	9.795511	0.000682	0.000174	-0.000291	-0.255853	0.996634	-125.314354
58631	6405076	-0.206989	-0.035024	9.816257	-0.004394	-0.007279	-0.000189			
58632	6405101	-0.178081	-0.066329	9.808917	-0.000472	-0.001913	-0.002609			
58633	6405126	-0.170661	-0.050975	9.801212	-0.004667	0.005636	-0.000890			
58634	6405151	-0.176247	-0.045111	9.783506	-0.009561	-0.003827	-0.001633	-0.255931	0.995829	-125.308212
58635	6405176	-0.150772	-0.076465	9.811666	-0.001591	-0.005233	-0.003141			
58636	6405201	-0.175208	-0.060459	9.799326	-0.004321	-0.002125	-0.008304			
58637	6405226	-0.172648	-0.048845	9.816563	-0.003356	0.000365	-0.000156			
58638	6405251	-0.181706	-0.019253	9.831457	-0.000025	0.002486	-0.000663	-0.254621	0.995435	-125.304138
58639	6405276	-0.174998	0.001328	9.790670	-0.005631	0.001417	-0.001997			
58640	6405301	-0.174716	-0.027478	9.810813	-0.008439	-0.003028	-0.003298			
58641	6405326	-0.171155	-0.040879	9.795469	-0.001280	-0.000708	-0.002536			
58642	6405351	-0.180541	-0.055753	9.793119	-0.007647	0.000215	-0.004120	-0.255275	0.995375	-125.293182
58643	6405376	-0.171227	-0.031868	9.791155	-0.006191	-0.003377	-0.002858			
58644	6405401	-0.180126	-0.051185	9.806532	-0.007790	-0.003342	-0.004199			
58645	6405426	-0.193980	-0.044452	9.792227	-0.003473	-0.000365	-0.006758			
58646	6405451	-0.177119	-0.018489	9.785419	-0.002858	-0.001319	-0.003624	-0.255557	0.994419	-125.289108
58647	6405476	-0.176339	-0.044848	9.798838	-0.004381	-0.001988	-0.003687			
58648	6405501	-0.159491	-0.053437	9.783416	-0.006349	-0.000212	-0.001879			
58649	6405526	-0.158855	-0.038625	9.808351	-0.006595	-0.002544	-0.001960			
58650	6405551	-0.177442	-0.037377	9.805084	-0.006980	-0.002481	-0.000606	-0.256389	0.993631	-125.279930
58651	6405576	-0.167965	-0.036846	9.808863	-0.005481	-0.001229	-0.001632			
58652	6405601	-0.181470	-0.031088	9.823793	-0.007872	-0.000563	-0.003162			
58653	6405626	-0.187666	-0.059333	9.805136	-0.005698	-0.000450	0.001001			
58654	6405651	-0.189139	-0.019491	9.804182	-0.005625	0.001292	0.000243	-0.257263	0.993739	-125.266068
58655	6405676	-0.171556	-0.056837	9.813202	-0.004248	0.000086	-0.001688			
58656	6405701	-0.144241	-0.070566	9.801093	-0.003594	0.005774	-0.004679			
58657	6405726	-0.166551	-0.034326	9.803593	-0.002629	0.001600	-0.001812			
58658	6405751	-0.188961	-0.025552	9.800341	-0.004071	-0.003530	-0.001837	-0.256701	0.994539	-125.252213
58659	6405776	-0.167753	-0.051989	9.807909	-0.004844	-0.001615	-0.006382			
58660	6405801	-0.177114	-0.033890	9.824252	-0.009359	-0.002207	-0.003614			
58661	6405826	-0.159983	-0.059390	9.803082	-0.003830	-0.003205	-0.002930			
58662	6405851	-0.152721	-0.072027	9.797297	-0.004140	0.002998	-0.000906	-0.257240	0.994214	-125.249275
58663	6405876	-0.153951	-0.060676	9.828925	-0.006001	-0.002983	-0.000486			
58664	6405901	-0.134718	-0.061844	9.797197	-0.004770	-0.001475	-0.000359			
58665	6405926	-0.151014	-0.053935	9.793447	-0.007229	0.001454	-0.001420			
58666	6405951	-0.168395	-0.034743	9.800243	-0.002116	-0.000720	-0.002532	-0.257463	0.993926	-125.237762
58667	6405976	-0.155962	-0.069032	9.784847	-0.003271	-0.000677	-0.003557			
58668	6406001	-0.156896	-0.040665	9.789155	-0.005472	0.002849	0.001146			
58669	6406026	-0.162668	-0.054642	9.831857	-0.004025	0.001711	0.002229			
58670	6406051	-0.171638	-0.040788	9.786365	-0.004604	0.005634	-0.001530	-0.257286	0.995540	-125.228485
58671	6406076	-0.175473	-0.048212	9.803634	-0.003287	0.002299	-0.001426			
58672	6406101	-0.181070	-0.062495	9.831947	-0.005785	-0.001812	-0.001308			
58673	6406126	-0.170643	-0.050662	9.812238	-0.005768	-0.004324	0.000982			
58674	6406151	-0.191274	-0.073709	9.808993	-0.008580	-0.002576	-0.000602	-0.257975	0.994872	-125.219048
58675	6406176	-0.173299	-0.056661	9.796429	-0.009730	-0.004666	-0.001960			
58676	6406201	-0.167789	-0.054686	9.826124	-0.008234	-0.005274	0.001624			
58677	6406226	-0.177873	-0.049877	9.818029	-0.003406	0.000039	0.001316			
58678	6406251	-0.174373	-0.060515	9.802679	-0.004350	0.003639	0.002109	-0.258981	0.994230	-125.209953
58679	6406276	-0.173855	-0.074741	9.829513	-0.007817	0.003895	-0.002429			
58680	6406301	-0.186218	-0.040959	9.842997	-0.009830	0.000563	-0.003272			
58681	6406326	-0.182446	-0.058372	9.809911	-0.005862	-0.001359	-0.000857			
58682	6406351	-0.214633	-0.037452	9.809112	-0.007285	0.000864	-0.005198	-0.260752	0.995037	-125.197983
58683	6406376	-0.185638	-0.067789	9.804642	-0.005378	-0.002450	0.000353			
58684	6406401	-0.176548	-0.059879	9.855413	-0.001344	-0.000975	-0.007279			
58685	6406426	-0.149835	-0.063761	9.784818	-0.005437	-0.002654	-0.001062			
58686	6406451	-0.204923	-0.047534	9.797555	-0.004748	-0.000381	-0.005025	-0.260536	0.994351	-125.186287
58687	6406476	-0.172933	-0.068574	9.834308	-0.004968	-0.001810	-0.005481			
58688	6406501	-0.166862	-0.055414	9.819883	0.000790	-0.001246	-0.002608			
58689	6406526	-0.174728	-0.065737	9.802197	-0.006440	0.000621	-0.004186			
58690	6406551	-0.169650	-0.051428	9.801692	-0.002344	0.000177	-0.006564	-0.259769	0.994268	-125.179634
58691	6406576	-0.184437	-0.047421	9.806557	-0.004353	-0.004756	-0.000370			
58692	6406601	-0.182362	-0.059047	9.790246	-0.005133	0.001547	-0.004885			
58693	6406626	-0.193504	-0.046162	9.808518	-0.005789	-0.003745	0.000794			
58694	6406651	-0.165663	-0.071358	9.806471	-0.004086	0.001381	-0.000599	-0.259885	0.993713	-125.166290
58695	6406676	-0.176990	-0.044189	9.818983	-0.004032	-0.000492	-0.001954			
58696	6406701	-0.155362	-0.055715	9.815039	-0.003441	-0.003263	-0.004084			
58697	6406726	-0.152170	-0.044196	9.809273	-0.002868	0.001208	-0.001751			
58698	6406751	-0.185535	-0.044683	9.812795	-0.003722	0.001639	-0.003411	-0.259257	0.993825	-125.156303
58699	6406776	-0.157617	-0.063749	9.811216	-0.004593	-0.001478	-0.005029			
58700	6406801	-0.168883	-0.043529	9.815103	-0.001386	0.000715	-0.002721			
58701	6406826	-0.168223	-0.056929	9.818452	-0.006616	-0.001433	0.003050			
58702	6406851	-0.181608	-0.033243	9.784009	-0.002210	-0.003697	-0.002035	-0.258725	0.993227	-125.145897
58703	6406876	-0.158095	-0.060288	9.803547	0.001092	-0.002922	-0.002685			
58704	6406901	-0.139511	-0.068292	9.813523	-0.002587	0.000508	0.001442			
58705	6406926	-0.156695	-0.030714	9.821260	-0.004534	-0.000958	-0.004266			
58706	6406951	-0.158651	-0.053601	9.799242	-0.002335	-0.001623	-0.001901	-0.257271	0.992759	-125.137726
58707	6406976	-0.141806	-0.033785	9.812092	-0.009507	-0.001685	-0.001240			
58708	6407001	-0.157677	-0.056641	9.808821	-0.007419	-0.002947	-0.003177			
58709	6407026	-0.164488	-0.033420	9.776253	-0.006536	-0.000346	-0.002904			
58710	6407051	-0.186168	-0.016367	9.789312	-0.005557	-0.001034	-0.001366	-0.258779	0.992143	-125.128792
58711	6407076	-0.181137	-0.044533	9.802222	-0.008844	-0.001997	-0.000151			
58712	6407101	-0.173820	-0.030335	9.814165	-0.004432	0.002220	-0.000587			
58713	6407126	-0.163164	-0.031646	9.783440	-0.007311	0.003767	-0.004742			
58714	6407151	-0.164431	-0.042029	9.782009	-0.004372	0.001948	-0.004309	-0.259708	0.993238	-125.119751
58715	6407176	-0.157052	-0.035720	9.804021	-0.007647	0.002213	-0.005585			
58716	6407201	-0.146380	-0.047964	9.806847	-0.007984	-0.001082	-0.002654			
58717	6407226	-0.184968	-0.025633	9.840590	-0.004882	-0.000125	-0.003546			
58718	6407251	-0.183871	-0.025717	9.814703	-0.004281	0.001578	0.000691	-0.260617	0.993853	-125.112022
58719	6407276	-0.167792	-0.048699	9.808875	-0.005679	-0.002976	0.000025			
58720	6407301	-0.154539	-0.041185	9.796816	-0.002797	-0.001118	-0.002091			
58721	6407326	-0.192239	-0.036151	9.808035	-0.003727	-0.001641	0.003496			
58722	6407351	-0.165762	-0.056492	9.800714	0.000799	0.000565	-0.000295	-0.259577	0.993360	-125.098724
58723	6407376	-0.169206	-0.049256	9.813680	-0.005423	-0.003822	-0.006707			
58724	6407401	-0.191590	-0.054351	9.818580	-0.003660	-0.002760	-0.007026			
58725	6407426	-0.189412	-0.047433	9.831511	-0.007497	-0.000226	-0.000723			
58726	6407451	-0.187881	-0.043359	9.813764	-0.006630	-0.003575	-0.001831	-0.260271	0.992113	-125.089973
58727	6407476	-0.179339	-0.049509	9.820436	-0.007538	0.001256	-0.001676			
58728	6407501	-0.182584	-0.054955	9.835311	-0.003570	-0.005202	-0.002554			
58729	6407526	-0.162511	-0.042200	9.792544	-0.005819	-0.004916	-0.000626			
58730	6407551	-0.166049	-0.068513	9.803583	-0.002111	-0.004525	0.001545	-0.260336	0.990442	-125.077797
58731	6407576	-0.162776	-0.078157	9.816043	-0.005384	0.001545	-0.005019			
58732	6407601	-0.166374	-0.052045	9.811263	-0.009072	0.000507	-0.006483			
58733	6407626	-0.180175	-0.051559	9.802697	-0.003907	0.001770	-0.000404			
58734	6407651	-0.157160	-0.052625	9.796829	-0.003861	-0.004104	-0.001074	-0.260881	0.990642	-125.067688
58735	6407676	-0.163014	-0.054820	9.812204	-0.003521	0.001982	0.003830			
58736	6407701	-0.167387	-0.085649	9.811264	0.001837	0.000000	-0.001194			
58737	6407726	-0.149461	-0.077045	9.816453	-0.004858	0.003500	-0.000775			
58738	6407751	-0.181222	-0.075730	9.800792	-0.001989	-0.000714	-0.002593	-0.259435	0.991570	-125.054123
58739	6407776	-0.194292	-0.059825	9.805161	-0.001687	-0.001740	0.000599			
58740	6407801	-0.163719	-0.070488	9.813644	-0.002372	-0.004730	-0.002360			
58741	6407826	-0.178650	-0.053865	9.795986	-0.006616	0.000368	0.000942			
58742	6407851	-0.177275	-0.060991	9.824735	-0.011332	-0.002229	0.001583	-0.259915	0.990629	-125.043938
58743	6407876	-0.177382	-0.051396	9.824258	-0.004080	-0.001009	-0.000544			
58744	6407901	-0.149671	-0.063479	9.826038	-0.009634	0.000435	-0.003670			
58745	6407926	-0.188779	-0.050419	9.813767	-0.002626	-0.000532	-0.000800			
58746	6407951	-0.181084	-0.032623	9.838651	-0.001712	0.002900	-0.003031	-0.259851	0.991129	-125.033264
58747	6407976	-0.162494	-0.067467	9.830904	-0.004272	-0.001405	-0.006002			
58748	6408001	-0.162567	-0.082374	9.806453	-0.012426	-0.004065	0.000612			
58749	6408026	-0.163077	-0.051147	9.816520	-0.007308	-0.000031	-0.000282			
58750	6408051	-0.186535	-0.034596	9.803694	-0.006677	0.000566	0.002553	-0.261583	0.990677	-125.027390
58751	6408076	-0.198291	-0.051941	9.816207	0.000431	-0.002027	-0.000875			
58752	6408101	-0.150891	-0.070742	9.808789	-0.004046	0.002027	0.000432			
58753	6408126	-0.165281	-0.058852	9.794483	-0.003743	0.004286	-0.005388			
58754	6408151	-0.148580	-0.055857	9.795827	-0.004925	-0.000569	-0.000088	-0.260686	0.991457	-125.017761
58755	6408176	-0.148624	-0.060334	9.808777	-0.006793	0.001255	-0.007062			
58756	6408201	-0.164511	-0.049706	9.814130	-0.009263	0.000837	-0.001547			
58757	6408226	-0.168911	-0.056996	9.790661	-0.010008	-0.008352	-0.004284			
58758	6408251	-0.166784	-0.070846	9.831880	-0.002842	0.004305	-0.003019	-0.262196	0.991420	-125.011536
58759	6408276	-0.169369	-0.046074	9.824694	-0.004736	-0.000834	-0.005540			
58760	6408301	-0.141452	-0.079133	9.834627	-0.004162	0.003575	-0.001997			
58761	6408326	-0.140242	-0.080478	9.800593	-0.005515	0.001672	-0.004181			
58762	6408351	-0.152255	-0.076414	9.807841	-0.002526	0.002907	0.003892	-0.261972	0.992707	-124.997940
58763	6408376	-0.154351	-0.058912	9.806894	-0.004980	0.000712	-0.004505			
58764	6408401	-0.150695	-0.050551	9.815495	-0.010896	-0.000101	-0.003794			
58765	6408426	-0.171483	-0.061576	9.811281	-0.006202	-0.000921	-0.003423			
58766	6408451	-0.159187	-0.049869	9.800194	-0.006427	0.000045	-0.002840	-0.263421	0.992909	-124.989090
58767	6408476	-0.192470	-0.061956	9.821463	-0.002049	-0.000453	-0.001118			
58768	6408501	-0.172155	-0.049343	9.817516	-0.003962	-0.000750	-0.001828			
58769	6408526	-0.172193	-0.042023	9.803144	-0.006799	0.001778	-0.005011			
58770	6408551	-0.176302	-0.056321	9.806526	-0.002392	-0.000080	-0.004520	-0.262960	0.993216	-124.976273
58771	6408576	-0.170336	-0.060714	9.786839	-0.004059	-0.002246	-0.006060			
58772	6408601	-0.173711	-0.067030	9.796441	-0.003289	-0.001968	-0.003886			
58773	6408626	-0.196294	-0.053654	9.801346	-0.001934	0.000393	0.003947			
58774	6408651	-0.180819	-0.052016	9.827146	-0.007717	0.004935	0.000651	-0.262738	0.993621	-124.965004
58775	6408676	-0.173596	-0.044913	9.810328	-0.002418	0.000884	-0.002977			
58776	6408701	-0.171329	-0.042137	9.817033	-0.000028	0.002283	-0.004706			
58777	6408726	-0.193849	-0.015650	9.794618	-0.011240	-0.001596	-0.004627			
58778	6408751	-0.198500	-0.038232	9.813337	-0.007531	0.002867	-0.003202	-0.263147	0.994498	-124.957558
58779	6408776	-0.187146	-0.023271	9.806563	-0.005856	-0.003685	-0.001705			
58780	6408801	-0.182530	-0.002908	9.781610	-0.007267	0.002804	-0.000447			
58781	6408826	-0.180937	-0.025913	9.802228	-0.000240	0.000532	-0.005671			
58782	6408851	-0.200327	-0.068190	9.786992	-0.004278	0.001515	0.002998	-0.263016	0.994913	-124.948288
58783	6408876	-0.188322	-0.043139	9.798907	-0.006931	0.000305	0.000438			
58784	6408901	-0.172246	-0.047669	9.831894	-0.004281	-0.000489	0.001706			
58785	6408926	-0.185908	-0.051783	9.811842	-0.005233	0.000776	-0.001749			
58786	6408951	-0.197698	-0.056064	9.803754	-0.003567	-0.001392	-0.004518	-0.263223	0.995043	-124.935921
58787	6408976	-0.193177	-0.070067	9.791749	-0.003956	0.000928	-0.001107			
58788	6409001	-0.201879	-0.039372	9.826290	-0.001287	-0.000317	-0.001891			
58789	6409026	-0.184136	-0.035112	9.803683	-0.008522	-0.001988	0.002539			
58790	6409051	-0.144056	-0.076719	9.797732	-0.008343	-0.002049	-0.000989	-0.263724	0.994801	-124.925995
58791	6409076	-0.163565	-0.041899	9.805972	-0.003213	-0.002486	-0.004721			
58792	6409101	-0.167103	-0.026821	9.806945	-0.005999	-0.003110	-0.001256			
58793	6409126	-0.180292	-0.039645	9.799348	-0.001296	0.004144	-0.000334			
58794	6409151	-0.178341	-0.043434	9.796940	-0.006297	0.002372	-0.002767	-0.263484	0.995177	-124.916115
58795	6409176	-0.189182	-0.055585	9.807544	-0.004482	0.001569	-0.001679			
58796	6409201	-0.177121	-0.068350	9.818496	-0.000018	-0.002164	-0.002035			
58797	6409226	-0.163265	-0.038309	9.814594	-0.008005	0.001565	-0.003922			
58798	6409251	-0.181551	-0.054510	9.803669	-0.007097	0.001526	-0.000840	-0.263642	0.995784	-124.910324
58799	6409276	-0.171261	-0.044183	9.820872	-0.005481	-0.001232	-0.001113			
58800	6409301	-0.145581	-0.051723	9.840393	-0.003341	-0.000155	0.000545			
58801	6409326	-0.160108	-0.057268	9.807394	-0.015549	0.001371	-0.000247			
58802	6409351	-0.203635	-0.039271	9.815756	-0.005157	-0.005750	-0.004281	-0.265214	0.995201	-124.897331
58803	6409376	-0.165371	-0.055841	9.815562	-0.001758	-0.002007	-0.003567			
58804	6409401	-0.133087	-0.056501	9.818283	-0.008073	0.005890	-0.001846			
58805	6409426	-0.167949	-0.043113	9.817022	-0.004619	-0.000182	-0.002979			
58806	6409451	-0.163490	-0.053179	9.826578	-0.007042	-0.006545	0.001805	-0.265639	0.995038	-124.887253
58807	6409476	-0.140534	-0.064628	9.817844	-0.005513	-0.002265	-0.001517			
58808	6409501	-0.146766	-0.063872	9.824596	-0.008219	0.000538	-0.000142			
58809	6409526	-0.162033	-0.057914	9.823698	-0.008875	-0.003026	0.002019			
58810	6409551	-0.171140	-0.045855	9.805048	-0.006647	-0.002538	0.001186	-0.267155	0.994246	-124.875900
58811	6409576	-0.154740	-0.068874	9.810251	0.000773	0.001010	-0.004072			
58812	6409601	-0.174647	-0.039796	9.814173	-0.001316	0.000460	-0.002471			
58813	6409626	-0.168264	-0.049552	9.801213	-0.008892	0.001690	0.000636			
58814	6409651	-0.165822	-0.062029	9.816532	-0.004254	0.000337	-0.003876	-0.266469	0.994997	-124.870079
58815	6409676	-0.166120	-0.069945	9.808386	-0.000922	-0.001858	-0.001581			
58816	6409701	-0.182186	-0.048053	9.821886	-0.000489	-0.001264	0.000472			
58817	6409726	-0.167268	-0.056198	9.798804	-0.010069	0.004373	-0.002037			
58818	6409751	-0.176103	-0.069556	9.801737	-0.005405	0.002256	-0.003855	-0.266235	0.995748	-124.862007
58819	6409776	-0.140750	-0.073784	9.800108	-0.000447	-0.004883	0.000063			
58820	6409801	-0.168033	-0.066189	9.804082	-0.008087	-0.002319	-0.006825			
58821	6409826	-0.179974	-0.066396	9.805582	-0.008553	0.000653	-0.003472			
58822	6409851	-0.175312	-0.061717	9.816097	-0.008607	-0.001344	0.001326	-0.267267	0.994857	-124.850052
58823	6409876	-0.191288	-0.050801	9.833924	-0.008629	0.000961	-0.003973			
58824	6409901	-0.173288	-0.044830	9.832857	-0.003119	0.002670	-0.004752			
58825	6409926	-0.192168	-0.052167	9.828160	-0.009261	-0.000851	0.001080			
58826	6409951	-0.188073	-0.052380	9.787406	-0.000955	-0.002584	0.000277	-0.267762	0.995132	-124.842743
58827	6409976	-0.191962	-0.067641	9.819073	-0.004317	-0.000001	-0.006689			
58828	6410001	-0.186446	-0.055339	9.821424	-0.008608	0.002776	0.000647			
58829	6410026	-0.162428	-0.069385	9.829932	-0.009136	-0.003177	-0.002205			
58830	6410051	-0.174978	-0.046912	9.812266	-0.005446	-0.002338	-0.000991	-0.269056	0.994980	-124.830315
58831	6410076	-0.172324	-0.069175	9.812726	-0.001782	-0.003314	-0.005111			
58832	6410101	-0.167841	-0.045323	9.804080	-0.007509	0.002214	-0.000700			
58833	6410126	-0.174818	-0.043012	9.773427	-0.005411	-0.001305	-0.000411			
58834	6410151	-0.179658	-0.064731	9.826658	-0.001211	0.003295	-0.001484	-0.268684	0.995350	-124.819016
58835	6410176	-0.184829	-0.064666	9.814713	-0.006503	0.002486	-0.004423			
58836	6410201	-0.161618	-0.055870	9.821301	-0.003961	-0.000697	-0.002079			
58837	6410226	-0.154448	-0.074142	9.776216	-0.008805	0.000970	0.001150			
58838	6410251	-0.146752	-0.062301	9.815476	-0.005807	0.000490	-0.006494	-0.269636	0.996058	-124.810387
58839	6410276	-0.162432	-0.074204	9.838570	-0.005133	-0.002272	-0.003621			
58840	6410301	-0.166601	-0.033667	9.819884	-0.004895	-0.001945	-0.003810			
58841	6410326	-0.183250	-0.023445	9.789765	-0.006422	-0.001900	-0.001433			
58842	6410351	-0.187562	-0.048462	9.843957	-0.001647	0.001356	0.002739	-0.269574	0.995619	-124.798897
58843	6410376	-0.178349	-0.038158	9.795023	-0.004254	-0.001936	-0.005737			
58844	6410401	-0.177155	-0.028525	9.821852	-0.000405	-0.001796	-0.000677			
58845	6410426	-0.181586	-0.047281	9.798389	-0.004402	-0.001420	-0.005287			
58846	6410451	-0.192649	-0.044680	9.810436	-0.001284	0.000009	0.002734	-0.268408	0.995125	-124.789497
58847	6410476	-0.179136	-0.065031	9.818512	-0.000517	-0.000446	-0.003237			
58848	6410501	-0.148387	-0.037034	9.802537	-0.008115	0.001498	0.001283			
58849	6410526	-0.179094	-0.016285	9.790712	-0.003476	0.000224	0.001003			
58850	6410551	-0.168011	-0.067865	9.795451	-0.001346	-0.000785	-0.004455	-0.267679	0.995439	-124.777916
58851	6410576	-0.143100	-0.047924	9.809225	-0.004633	0.002000	-0.004499			
58852	6410601	-0.150667	-0.044520	9.799671	-0.003661	-0.000311	-0.003298			
58853	6410626	-0.165732	-0.036141	9.760922	-0.011064	-0.002892	-0.001173			
58854	6410651	-0.176917	-0.036521	9.784465	-0.003202	0.001644	-0.001557	-0.268267	0.995745	-124.766838
58855	6410676	-0.173084	-0.041995	9.804106	-0.001115	0.000393	0.000808			
58856	6410701	-0.170289	-0.034823	9.801687	-0.002286	-0.002988	0.000344			
58857	6410726	-0.180504	-0.019215	9.795511	-0.007008	0.000609	-0.000331			
58858	6410751	-0.180771	-0.044685	9.815644	-0.006257	0.000814	-0.002764	-0.267989	0.995824	-124.755539
58859	6410776	-0.185255	-0.032611	9.828134	-0.005330	-0.002274	-0.003168			
58860	6410801	-0.180822	-0.040986	9.825232	-0.003456	-0.004624	-0.001135			
58861	6410826	-0.140751	-0.078662	9.806353	-0.003718	-0.000234	0.001317			
58862	6410851	-0.157385	-0.075366	9.792529	-0.005154	0.000441	-0.002001	-0.267860	0.995111	-124.744568
58863	6410876	-0.191887	-0.033095	9.820491	-0.008775	-0.000657	-0.004366			
58864	6410901	-0.172041	-0.057318	9.810339	-0.006337	0.001392	-0.004944			
58865	6410926	-0.179387	-0.041311	9.814680	-0.004742	-0.000453	-0.003099			
58866	6410951	-0.156457	-0.072134	9.797317	-0.005817	-0.003119	-0.002983	-0.268905	0.994950	-124.739326
58867	6410976	-0.171120	-0.062289	9.829502	-0.005439	-0.000460	0.000362			
58868	6411001	-0.175467	-0.044961	9.810829	-0.001763	-0.001103	0.000805			
58869	6411026	-0.181058	-0.048222	9.796959	-0.005700	-0.000143	0.001720			
58870	6411051	-0.172668	-0.044911	9.807937	-0.002588	0.002426	-0.002837	-0.268453	0.995298	-124.725952
58871	6411076	-0.189227	-0.049794	9.803706	-0.002681	-0.000736	-0.000350			
58872	6411101	-0.165769	-0.035244	9.828034	-0.009435	0.004701	-0.000110			
58873	6411126	-0.164491	-0.043802	9.802621	-0.004841	0.000972	0.001146			
58874	6411151	-0.168804	-0.053543	9.815590	-0.005363	0.003289	0.001279	-0.268976	0.996728	-124.716316
58875	6411176	-0.178856	-0.050064	9.825694	-0.007345	-0.000951	-0.001173			
58876	6411201	-0.210382	-0.042802	9.825378	-0.003611	0.000080	-0.002068			
58877	6411226	-0.155182	-0.068891	9.807377	-0.004637	0.000528	0.001967			
58878	6411251	-0.175687	-0.060055	9.796927	-0.009874	0.000110	-0.000577	-0.269957	0.996946	-124.708397
58879	6411276	-0.182637	-0.067672	9.857839	-0.007275	-0.001344	-0.004125			
58880	6411301	-0.177532	-0.080825	9.824745	-0.004861	0.001225	-0.002892			
58881	6411326	-0.188851	-0.051445	9.820960	-0.001031	0.002144	0.002548			
58882	6411351	-0.191258	-0.037919	9.799396	-0.004536	0.003366	-0.001024	-0.269836	0.997964	-124.698097
58883	6411376	-0.173191	-0.073412	9.807467	-0.006357	-0.002229	-0.004773			
58884	6411401	-0.174181	-0.070157	9.806991	-0.010465	-0.003918	-0.005279			
58885	6411426	-0.181961	-0.067985	9.818057	-0.005785	0.002441	-0.001667			
58886	6411451	-0.170824	-0.060305	9.790672	-0.004262	-0.003283	0.001119	-0.271041	0.997202	-124.686142
58887	6411476	-0.168259	-0.058972	9.822779	-0.012369	0.000261	0.001989			
58888	6411501	-0.170148	-0.064682	9.830450	-0.003882	0.000991	0.001392			
58889	6411526	-0.151750	-0.077963	9.813116	-0.004873	-0.000128	0.000107			
58890	6411551	-0.173480	-0.047598	9.794520	-0.004718	0.000775	-0.002451	-0.272069	0.997731	-124.679466
58891	6411576	-0.160909	-0.060873	9.803570	-0.008233	-0.003159	0.000806			
58892	6411601	-0.173278	-0.070669	9.815139	-0.003490	-0.001395	0.000355			
58893	6411626	-0.162764	-0.040896	9.828490	-0.008069	-0.002375	0.000811			
58894	6411651	-0.189257	-0.052021	9.823359	-0.006697	-0.003390	-0.000544	-0.273189	0.996499	-124.666100
58895	6411676	-0.174777	-0.032793	9.819441	-0.004341	0.001371	0.002165			
58896	6411701	-0.155913	-0.046049	9.803534	-0.003754	-0.001472	-0.004071			
58897	6411726	-0.146028	-0.063647	9.785272	-0.001237	-0.002073	-0.002089			
58898	6411751	-0.181408	-0.062974	9.802228	-0.002997	-0.000675	0.000934	-0.272291	0.996341	-124.656715
58899	6411776	-0.164050	-0.077065	9.803593	-0.008054	-0.003357	-0.004259			
58900	6411801	-0.163194	-0.072698	9.799747	-0.005953	-0.000606	-0.003229			
58901	6411826	-0.173411	-0.055000	9.786841	-0.001782	0.005279	-0.002632			
58902	6411851	-0.165017	-0.068210	9.784412	-0.005198	-0.002596	-0.005224	-0.272665	0.996393	-124.646103
58903	6411876	-0.166544	-0.040747	9.819407	-0.003463	-0.000365	0.000168			
58904	6411901	-0.156123	-0.032317	9.804487	-0.002865	0.000997	-0.002460			
58905	6411926	-0.189493	-0.051836	9.779257	-0.004257	-0.001541	-0.001441			
58906	6411951	-0.183475	-0.060456	9.820931	-0.006446	-0.001197	-0.003165	-0.272451	0.996339	-124.638458
58907	6411976	-0.140296	-0.043772	9.819275	-0.006676	-0.000298	-0.004566			
58908	6412001	-0.163807	-0.038135	9.835685	-0.006227	-0.002095	-0.003423			
58909	6412026	-0.199566	-0.029328	9.823406	-0.001720	-0.001048	-0.003424			
58910	6412051	-0.172879	-0.033803	9.826618	-0.003175	0.000541	-0.002071	-0.272364	0.996162	-124.628822
58911	6412076	-0.174677	-0.050648	9.837186	-0.004408	0.001432	-0.001232			
58912	6412101	-0.175919	-0.047763	9.808427	-0.001508	0.000578	-0.001693			
58913	6412126	-0.166903	-0.033349	9.799269	-0.005518	-0.008802	-0.005767			
58914	6412151	-0.167603	-0.067190	9.809826	-0.004953	0.000057	-0.004381	-0.272073	0.995437	-124.618576
58915	6412176	-0.176605	-0.063805	9.799814	-0.002651	-0.001374	0.002724			
58916	6412201	-0.170596	-0.028084	9.821825	-0.006010	0.003468	0.000706			
58917	6412226	-0.176482	-0.045477	9.808907	-0.008924	0.004576	-0.000946			
58918	6412251	-0.179553	-0.059070	9.800774	0.000769	-0.000943	-0.007088	-0.271823	0.996499	-124.605667
58919	6412276	-0.176737	-0.059816	9.817548	-0.004682	-0.002517	-0.002466			
58920	6412301	-0.153313	-0.064614	9.809274	-0.004892	-0.002010	-0.004390			
58921	6412326	-0.182470	-0.049610	9.792643	-0.009255	-0.001368	-0.001298			
58922	6412351	-0.161439	-0.070205	9.828496	-0.002028	-0.001442	-0.001827	-0.272166	0.995690	-124.596474
58923	6412376	-0.172968	-0.028711	9.834774	-0.002621	-0.002863	-0.001515			
58924	6412401	-0.169676	-0.053999	9.811280	-0.007464	0.001188	0.002688			
58925	6412426	-0.182707	-0.045610	9.817087	0.000671	0.000745	0.001000			
58926	6412451	-0.183338	-0.049107	9.790730	-0.008276	-0.003675	0.001897	-0.272020	0.995280	-124.582832
58927	6412476	-0.182184	-0.051060	9.829077	-0.005624	-0.004990	-0.003313			
58928	6412501	-0.168145	-0.053354	9.803600	-0.005449	-0.004143	0.001051			
58929	6412526	-0.183106	-0.051561	9.826200	-0.009374	-0.001431	0.001079			
58930	6412551	-0.192567	-0.053816	9.815232	-0.004251	0.002071	-0.004490	-0.272901	0.994318	-124.579590
58931	6412576	-0.158145	-0.064940	9.824646	-0.005254	-0.002794	-0.005996			
58932	6412601	-0.201957	-0.050713	9.784601	-0.010695	-0.000300	-0.003147			
58933	6412626	-0.164963	-0.050614	9.811727	-0.008094	0.002262	-0.003777			
58934	6412651	-0.176390	-0.047091	9.793584	-0.000603	0.004467	-0.002053	-0.273799	0.995073	-124.567886
58935	6412676	-0.160250	-0.050739	9.826571	-0.002849	-0.001119	0.003113			
58936	6412701	-0.167356	-0.021432	9.825640	-0.005202	0.001863	-0.003725			
58937	6412726	-0.159163	-0.055750	9.809785	-0.008328	0.001746	-0.001536			
58938	6412751	-0.156260	-0.058939	9.808808	-0.002263	0.000244	0.000612	-0.273801	0.995718	-124.559296
58939	6412776	-0.185049	-0.045716	9.815190	-0.008908	-0.000201	-0.001995			
58940	6412801	-0.173524	-0.055195	9.826160	-0.004610	-0.002521	-0.002725			
58941	6412826	-0.164975	-0.053626	9.818445	-0.010674	-0.000940	0.000243			
58942	6412851	-0.159860	-0.075144	9.805957	-0.007749	0.003693	-0.002362	-0.275724	0.995964	-124.546944
58943	6412876	-0.167200	-0.066066	9.827566	-0.007488	-0.002761	-0.002655			
58944	6412901	-0.183480	-0.050290	9.807510	-0.004980	-0.002708	0.001828			
58945	6412926	-0.170251	-0.042405	9.801203	-0.004427	-0.000125	-0.002654			
58946	6412951	-0.167999	-0.061245	9.791137	-0.004432	-0.002058	0.000353	-0.276116	0.995117	-124.539047
58947	6412976	-0.205088	-0.038361	9.818162	-0.004245	-0.004326	-0.004846			
58948	6413001	-0.165981	-0.051152	9.818445	-0.000905	0.003877	-0.002122			
58949	6413026	-0.153126	-0.075255	9.791062	-0.006476	-0.000162	-0.001751			
58950	6413051	-0.149581	-0.058308	9.805900	-0.000580	-0.000376	-0.000353	-0.275217	0.995217	-124.527985
58951	6413076	-0.171481	-0.068545	9.832854	-0.004095	-0.004894	-0.001267			
58952	6413101	-0.168654	-0.062980	9.811274	-0.004861	0.003286	-0.005257			
58953	6413126	-0.172290	-0.059829	9.791162	-0.003615	-0.003329	0.002716			
58954	6413151	-0.148987	-0.061528	9.799665	0.001556	-0.001241	-0.001135	-0.274136	0.994581	-124.520180
58955	6413176	-0.165345	-0.067418	9.826593	-0.004789	0.001299	-0.000656			
58956	6413201	-0.156529	-0.044001	9.822714	-0.004898	-0.001425	-0.000288			
58957	6413226	-0.168464	-0.051181	9.846742	-0.008141	-0.004449	-0.002469			
58958	6413251	-0.159261	-0.054868	9.816978	-0.004923	0.003554	-0.001794	-0.274737	0.994685	-124.513763
58959	6413276	-0.209583	-0.033393	9.831608	-0.004026	-0.000429	0.001964			
58960	6413301	-0.205644	-0.007901	9.840204	-0.006722	-0.004290	0.002594			
58961	6413326	-0.204203	-0.047625	9.835409	-0.003572	0.000660	-0.005655			
58962	6413351	-0.179645	-0.068208	9.834814	-0.003712	-0.000367	-0.000542	-0.274654	0.994298	-124.503120
58963	6413376	-0.172030	-0.063090	9.819919	-0.001083	0.001222	-0.004575			
58964	6413401	-0.152054	-0.055088	9.804955	-0.005573	0.003535	-0.004421			
58965	6413426	-0.178904	-0.070039	9.802224	-0.003064	-0.002871	-0.000229			
58966	6413451	-0.187689	-0.055577	9.809448	-0.004894	-0.003876	-0.001962	-0.274105	0.994247	-124.488426
58967	6413476	-0.171947	-0.065602	9.824711	-0.004600	-0.003164	-0.003114			
58968	6413501	-0.157090	-0.067628	9.812181	-0.011441	-0.000887	-0.000452			
58969	6413526	-0.190623	-0.047479	9.807542	-0.001852	-0.006731	-0.000381			
58970	6413551	-0.152144	-0.051129	9.826047	-0.005248	-0.002988	-0.006510	-0.274775	0.992516	-124.478447
58971	6413576	-0.179409	-0.049081	9.825221	-0.005868	0.005086	-0.002615			
58972	6413601	-0.160363	-0.031346	9.795892	-0.007686	0.001100	-0.007056			
58973	6413626	-0.175130	-0.042833	9.823763	-0.004421	-0.000249	0.000232			
58974	6413651	-0.177248	-0.045403	9.801247	-0.007379	-0.006244	-0.001264	-0.275763	0.992711	-124.467316
58975	6413676	-0.156995	-0.049176	9.822713	-0.001974	0.003277	-0.002514			
58976	6413701	-0.161864	-0.030097	9.808831	-0.003722	0.001764	-0.001290			
58977	6413726	-0.162119	-0.040725	9.789186	-0.003511	0.001250	-0.002648			
58978	6413751	-0.171025	-0.060625	9.815115	-0.001255	-0.001419	-0.000033	-0.274607	0.993658	-124.460381
58979	6413776	-0.162690	-0.041012	9.810279	-0.002070	0.002179	-0.001934			
58980	6413801	-0.197667	-0.030740	9.821963	-0.003023	0.000228	0.001833			
58981	6413826	-0.184457	-0.055610	9.812793	-0.007160	0.003117	-0.003970			
58982	6413851	-0.181526	-0.049102	9.795030	-0.003624	-0.003396	-0.000234	-0.274223	0.994211	-124.451714
58983	6413876	-0.176780	-0.057889	9.812758	-0.007793	0.000913	-0.000839			
58984	6413901	-0.162672	-0.053813	9.836161	-0.007527	-0.001474	-0.004122			
58985	6413926	-0.196292	-0.063485	9.822922	-0.005296	0.000833	-0.002375			
58986	6413951	-0.159553	-0.061382	9.810752	-0.003876	-0.001799	-0.004841	-0.275091	0.994235	-124.443756
58987	6413976	-0.176417	-0.043490	9.798365	-0.006415	0.002174	-0.000767			
58988	6414001	-0.167620	-0.037751	9.837145	-0.009213	-0.003123	-0.007141			
58989	6414026	-0.182991	-0.061563	9.830517	-0.005285	-0.003228	0.003105			
58990	6414051	-0.194701	-0.037888	9.825295	-0.006397	-0.000872	-0.002706	-0.276351	0.993751	-124.430054
58991	6414076	-0.193269	-0.032798	9.807557	-0.002728	-0.001390	-0.004390			
58992	6414101	-0.189696	-0.045123	9.806110	-0.004075	-0.003941	-0.007923			
58993	6414126	-0.199237	-0.055328	9.816222	-0.003184	0.000863	-0.004248			
58994	6414151	-0.169426	-0.051190	9.849615	-0.001669	-0.002863	-0.006004	-0.275406	0.992933	-124.422539
58995	6414176	-0.182736	-0.048927	9.840578	-0.007786	-0.003612	-0.005668			
58996	6414201	-0.168891	-0.074367	9.811276	-0.007874	-0.005029	-0.003500			
58997	6414226	-0.169002	-0.067070	9.798334	-0.007361	0.001441	-0.002250			
58998	6414251	-0.198571	-0.057869	9.793692	-0.006682	-0.000037	-0.003920	-0.277028	0.992137	-124.415352
58999	6414276	-0.188438	-0.044530	9.830065	-0.006109	-0.003242	0.002918			
59000	6414301	-0.186948	-0.073857	9.797943	-0.001453	-0.001296	-0.001575			
59001	6414326	-0.170146	-0.062747	9.829502	-0.002879	0.001191	-0.003542			
59002	6414351	-0.159494	-0.066635	9.809792	-0.004174	-0.000514	-0.005475	-0.276471	0.991828	-124.406227
59003	6414376	-0.160582	-0.056749	9.810267	-0.011574	-0.000894	-0.002956			
59004	6414401	-0.162998	-0.051070	9.815075	-0.003134	-0.004950	-0.003000			
59005	6414426	-0.165458	-0.041879	9.800225	-0.005300	-0.001375	-0.005795			
59006	6414451	-0.176470	-0.041225	9.806506	-0.008525	-0.000264	-0.004435	-0.277928	0.990992	-124.396255
59007	6414476	-0.175070	-0.076884	9.818980	-0.001727	-0.006598	0.000516			
59008	6414501	-0.143209	-0.041037	9.825522	-0.004540	-0.002775	-0.002986			
59009	6414526	-0.183489	-0.044340	9.791213	-0.005798	-0.001372	-0.001884			
59010	6414551	-0.176756	-0.051113	9.803637	-0.005932	-0.005187	-0.000107	-0.277846	0.988958	-124.387497
59011	6414576	-0.175826	-0.058951	9.820896	-0.005169	-0.002979	-0.000358			
59012	6414601	-0.165682	-0.065230	9.807422	-0.003032	-0.004169	-0.003320			
59013	6414626	-0.158209	-0.065901	9.829921	-0.000249	0.000785	-0.005348			
59014	6414651	-0.161302	-0.037657	9.807395	-0.004481	0.001226	-0.004759	-0.277062	0.988465	-124.380203
59015	6414676	-0.172287	-0.047301	9.838617	-0.005797	-0.001237	0.001711			
59016	6414701	-0.142774	-0.063420	9.801079	-0.004140	-0.003284	-0.001259			
59017	6414726	-0.143876	-0.086047	9.789104	-0.006638	-0.003321	-0.000870			
59018	6414751	-0.141543	-0.057911	9.814495	-0.003077	-0.000492	-0.003430	-0.277216	0.987520	-124.372475
59019	6414776	-0.143520	-0.045480	9.802520	-0.008050	-0.001284	-0.003543			
59020	6414801	-0.165687	-0.063151	9.794489	-0.005856	0.002830	-0.000001			
59021	6414826	-0.150705	-0.045203	9.813577	-0.003076	-0.000682	-0.001819			
59022	6414851	-0.177167	-0.037192	9.830486	-0.001125	0.000653	-0.000928	-0.277154	0.987976	-124.357491
59023	6414876	-0.148251	-0.064399	9.828429	-0.003423	0.002284	-0.003791			
59024	6414901	-0.163856	-0.061885	9.809804	0.001751	-0.001104	0.003098			
59025	6414926	-0.170064	-0.060710	9.818470	-0.004722	-0.000969	-0.001110			
59026	6414951	-0.163164	-0.052657	9.828979	-0.001453	0.000824	-0.004643	-0.275623	0.988373	-124.351204
59027	6414976	-0.179979	-0.043101	9.843429	0.003205	-0.003026	-0.004862			
59028	6415001	-0.165001	-0.053141	9.821323	-0.006425	0.002560	-0.000577			
59029	6415026	-0.169694	-0.054816	9.808402	-0.000910	0.002144	0.002162			
59030	6415051	-0.189069	-0.031533	9.818088	-0.004134	0.002590	-0.004940	-0.274157	0.989222	-124.338051
59031	6415076	-0.162932	-0.060911	9.810758	-0.000426	0.000389	-0.005993			
59032	6415101	-0.159036	-0.061245	9.799240	-0.007021	0.000472	-0.005138			
59033	6415126	-0.166974	-0.080626	9.821343	-0.004014	-0.003481	-0.003502			
59034	6415151	-0.191342	-0.065442	9.803243	-0.000818	-0.002965	-0.000682	-0.273283	0.988662	-124.330765
59035	6415176	-0.191750	-0.052721	9.833913	-0.006790	-0.000167	-0.001363			
59036	6415201	-0.183707	-0.036205	9.817101	-0.005564	-0.002922	-0.003047			
59037	6415226	-0.179175	-0.057001	9.817558	-0.001965	-0.001307	-0.001954			
59038	6415251	-0.176169	-0.069787	9.817064	-0.006072	-0.003061	-0.003816	-0.273558	0.987829	-124.316422
59039	6415276	-0.183115	-0.049462	9.815185	-0.006306	0.000420	-0.004953			
59040	6415301	-0.195215	-0.068432	9.810925	0.000778	0.001135	-0.001311			
59041	6415326	-0.171120	-0.058980	9.825658	-0.005561	-0.000921	-0.003228			
59042	6415351	-0.174089	-0.049820	9.816566	-0.006095	0.003980	-0.003198	-0.273381	0.988730	-124.307793
59043	6415376	-0.191152	-0.046977	9.804201	-0.002776	0.000493	0.000493			
59044	6415401	-0.196557	-0.042505	9.818602	-0.002211	0.000691	-0.000855			
59045	6415426	-0.164344	-0.056575	9.800707	-0.003985	0.001818	-0.004819			
59046	6415451	-0.173323	-0.059544	9.800752	-0.003880	-0.003207	0.000988	-0.272562	0.988945	-124.295349
59047	6415476	-0.181584	-0.060971	9.829063	-0.000530	-0.001992	-0.000039			
59048	6415501	-0.174836	-0.044218	9.789737	-0.006425	-0.003973	-0.001892			
59049	6415526	-0.182338	-0.058613	9.796000	-0.004728	-0.003102	-0.003496			
59050	6415551	-0.180121	-0.060250	9.811811	-0.001703	0.002769	-0.002572	-0.271830	0.988290	-124.290390
59051	6415576	-0.184839	-0.053587	9.806080	-0.005125	-0.004658	-0.003567			
59052	6415601	-0.189368	-0.046132	9.834857	-0.012262	-0.005427	-0.001054			
59053	6415626	-0.180965	-0.058915	9.787856	-0.003703	0.003378	-0.001866			
59054	6415651	-0.193570	-0.035903	9.789343	-0.004533	-0.002772	0.000542	-0.272844	0.987176	-124.279625
59055	6415676	-0.188902	-0.040960	9.813283	-0.004616	0.002079	0.000447			
59056	6415701	-0.165460	-0.046752	9.809333	-0.005020	-0.001554	0.000679			
59057	6415726	-0.204507	-0.027684	9.773101	-0.001329	-0.003043	-0.001392			
59058	6415751	-0.197869	-0.009168	9.806615	-0.003621	0.000729	-0.003543	-0.272271	0.987169	-124.271698
59059	6415776	-0.158320	-0.052129	9.824640	-0.005272	-0.002007	-0.000860			
59060	6415801	-0.165979	-0.045345	9.806953	-0.006229	0.002369	-0.000452			
59061	6415826	-0.163535	-0.050504	9.805969	-0.008021	0.002134	-0.003529			
59062	6415851	-0.188680	-0.030278	9.830541	-0.005448	-0.000402	-0.004572	-0.273202	0.987708	-124.259323
59063	6415876	-0.135311	-0.063576	9.822112	0.002627	-0.000644	-0.000493			
59064	6415901	-0.156216	-0.059350	9.799706	-0.005908	0.000174	-0.001177			
59065	6415926	-0.184496	-0.053819	9.819506	-0.008258	-0.000647	-0.003411			
59066	6415951	-0.189306	-0.035012	9.797950	-0.002936	-0.002614	0.000605	-0.272615	0.987422	-124.250443
59067	6415976	-0.164165	-0.036358	9.811724	-0.008191	-0.002578	-0.001562			
59068	6416001	-0.172708	-0.030915	9.790676	-0.004528	0.001107	-0.000140			
59069	6416026	-0.161130	-0.051490	9.812665	-0.004213	-0.001159	-0.004324			
59070	6416051	-0.147743	-0.055613	9.811168	-0.007126	0.000282	-0.000334	-0.273406	0.987330	-124.239326
59071	6416076	-0.144461	-0.050752	9.806356	-0.007471	0.003052	-0.000189			
59072	6416101	-0.147574	-0.065828	9.800618	-0.002238	0.001667	0.000684			
59073	6416126	-0.159555	-0.061946	9.805479	-0.014611	0.002614	0.003801			
59074	6416151	-0.158676	-0.058654	9.815054	-0.009091	0.001803	-0.000125	-0.275511	0.988890	-124.228683
59075	6416176	-0.156284	-0.068707	9.825121	-0.003639	0.003448	-0.001030			
59076	6416201	-0.156990	-0.049135	9.818886	-0.002280	0.004752	-0.002633			
59077	6416226	-0.168845	-0.048362	9.818457	-0.005469	0.002310	-0.003786			
59078	6416251	-0.152060	-0.045890	9.794897	-0.004132	0.000598	-0.001298	-0.275086	0.990719	-124.216606
59079	6416276	-0.192221	-0.047705	9.817624	-0.004239	0.000075	-0.000471			
59080	6416301	-0.177898	-0.051061	9.830492	-0.006433	-0.001389	-0.001048			
59081	6416326	-0.174577	-0.074709	9.800290	-0.003563	0.000337	-0.005144			
59082	6416351	-0.161465	-0.073527	9.826097	-0.005233	0.003026	-0.003146	-0.275227	0.991263	-124.212234
59083	6416376	-0.188898	-0.050639	9.827673	-0.002874	0.001398	0.000623			
59084	6416401	-0.179126	-0.051085	9.800303	-0.005867	-0.001839	-0.006817			
59085	6416426	-0.178662	-0.104130	9.829069	-0.003362	-0.003719	-0.002414			
59086	6416451	-0.158842	-0.080439	9.815538	-0.004956	-0.003812	-0.000934	-0.275023	0.990365	-124.203697
59087	6416476	-0.169225	-0.058065	9.829015	-0.006276	-0.002152	0.002536			
59088	6416501	-0.166383	-0.057401	9.817980	-0.009641	0.001284	0.005318			
59089	6416526	-0.177843	-0.055185	9.824264	-0.004458	0.000776	-0.001876			
59090	6416551	-0.175124	-0.067236	9.806993	-0.002812	-0.004673	0.002642	-0.275653	0.989936	-124.191460
59091	6416576	-0.157692	-0.068877	9.832788	-0.006895	-0.003269	-0.003622			
59092	6416601	-0.182856	-0.027092	9.813733	-0.003870	-0.002125	-0.005285			
59093	6416626	-0.176397	-0.052798	9.820414	-0.005820	-0.002797	-0.001381			
59094	6416651	-0.179787	-0.047446	9.807972	-0.008979	0.002253	-0.002305	-0.276675	0.989322	-124.179657
59095	6416676	-0.177626	-0.054709	9.794058	-0.002027	-0.003448	-0.003631			
59096	6416701	-0.175682	-0.068912	9.821856	-0.005926	-0.003503	-0.000675			
59097	6416726	-0.183398	-0.062239	9.813260	-0.006303	-0.001447	-0.000474			
59098	6416751	-0.180606	-0.055089	9.815168	-0.003250	-0.000808	0.000489	-0.276523	0.988248	-124.169945
59099	6416776	-0.172831	-0.061515	9.808900	-0.004694	-0.006261	-0.002362			
59100	6416801	-0.200077	-0.052233	9.798009	-0.003311	-0.001599	-0.007014			
59101	6416826	-0.164129	-0.070709	9.792076	-0.007257	0.000086	-0.002451			
59102	6416851	-0.188352	-0.045183	9.813286	-0.003998	-0.001660	0.000036	-0.276640	0.987138	-124.160851
59103	6416876	-0.183242	-0.050186	9.836273	-0.001554	0.001922	-0.004894			
59104	6416901	-0.164679	-0.061118	9.794458	0.005448	-0.003245	-0.004743			
59105	6416926	-0.167566	-0.033664	9.817971	-0.006191	-0.003387	-0.004326			
59106	6416951	-0.185150	-0.039198	9.825726	-0.003313	-0.002679	0.003681	-0.274798	0.986323	-124.153282
59107	6416976	-0.166952	-0.042947	9.808386	-0.002578	0.000438	0.004271			
59108	6417001	-0.143571	-0.045994	9.807317	-0.008187	0.001755	0.002369			
59109	6417026	-0.182837	-0.034370	9.819012	-0.007854	0.001439	0.001281			
59110	6417051	-0.183502	-0.011779	9.809895	-0.001508	-0.003293	0.001113	-0.274989	0.986626	-124.140617
59111	6417076	-0.155065	-0.036528	9.801615	-0.001729	0.001150	-0.004250			
59112	6417101	-0.147157	-0.054430	9.794389	-0.008455	-0.000259	-0.000396			
59113	6417126	-0.146810	-0.053545	9.802047	-0.006157	0.002113	-0.000589			
59114	6417151	-0.178948	-0.040085	9.827127	-0.003162	-0.003776	-0.000432	-0.275126	0.986761	-124.131218
59115	6417176	-0.159624	-0.052278	9.804034	-0.004537	-0.001097	-0.002843			
59116	6417201	-0.165407	-0.048567	9.803104	-0.005300	-0.001244	-0.005925			
59117	6417226	-0.171507	-0.054362	9.805531	-0.006014	-0.002404	0.003113			
59118	6417251	-0.164771	-0.031256	9.820355	-0.003169	-0.003389	0.001495	-0.275190	0.985842	-124.120659
59119	6417276	-0.176467	-0.011901	9.817533	-0.003815	0.002994	-0.000323			
59120	6417301	-0.139428	-0.072050	9.809690	-0.003359	0.000285	-0.003226			
59121	6417326	-0.171289	-0.074834	9.807461	-0.006311	-0.001316	-0.000282			
59122	6417351	-0.164017	-0.052002	9.815084	-0.000766	-0.000842	-0.004330	-0.274581	0.986246	-124.111397
59123	6417376	-0.176174	-0.028846	9.809386	-0.003454	0.001246	-0.004180			
59124	6417401	-0.157084	-0.040770	9.824155	-0.007474	0.000849	-0.005394			
59125	6417426	-0.162002	-0.056331	9.813647	-0.011352	-0.001854	-0.000329			
59126	6417451	-0.161650	-0.052438	9.813635	-0.002576	0.003976	-0.001414	-0.275498	0.987087	-124.100342
59127	6417476	-0.180246	-0.050465	9.822835	-0.003305	-0.003335	-0.001128			
59128	6417501	-0.179458	-0.025896	9.800285	-0.004627	-0.001471	0.004207			
59129	6417526	-0.174799	-0.064523	9.813706	-0.007594	0.001051	0.001279			
59130	6417551	-0.196191	-0.031018	9.812366	-0.002381	0.002047	-0.001037	-0.275384	0.987093	-124.088982
59131	6417576	-0.166328	-0.051454	9.803586	-0.006406	-0.000422	-0.002262			
59132	6417601	-0.178888	-0.041626	9.805094	-0.005217	0.002314	-0.004108			
59133	6417626	-0.176455	-0.060044	9.830007	-0.007369	0.005895	-0.003441			
59134	6417651	-0.178930	-0.043132	9.810361	-0.003660	0.005959	-0.003001	-0.275990	0.989295	-124.074661
59135	6417676	-0.200946	-0.029675	9.809505	-0.007111	0.001505	-0.003716			
59136	6417701	-0.190198	-0.046068	9.806104	-0.005512	-0.002664	-0.003172			
59137	6417726	-0.204799	-0.060002	9.803311	-0.007978	0.001113	0.001474			
59138	6417751	-0.182917	-0.057844	9.808469	-0.003649	-0.001089	-0.007202	-0.276824	0.989378	-124.070023
59139	6417776	-0.157985	-0.079535	9.819370	-0.003077	-0.000352	-0.000419			
59140	6417801	-0.170417	-0.069251	9.814644	-0.007302	-0.002833	-0.005476			
59141	6417826	-0.198122	-0.067775	9.818613	-0.007907	-0.001605	-0.002389			
59142	6417851	-0.198036	-0.028078	9.803271	-0.005873	-0.001448	-0.006431	-0.277649	0.988722	-124.060127
59143	6417876	-0.177566	-0.036750	9.823774	-0.008635	-0.000578	-0.000712			
59144	6417901	-0.163226	-0.070422	9.807404	-0.002672	-0.002992	0.001435			
59145	6417926	-0.183980	-0.049813	9.804635	-0.010681	0.001182	-0.003071			
59146	6417951	-0.175704	-0.036684	9.824244	-0.004949	0.002261	-0.001802	-0.278847	0.988950	-124.050415
59147	6417976	-0.185562	-0.044265	9.814714	-0.004642	0.000519	-0.003287			
59148	6418001	-0.184307	-0.056763	9.800321	-0.001252	-0.001554	-0.001569			
59149	6418026	-0.162573	-0.080886	9.808857	-0.005503	-0.004590	0.002074			
59150	6418051	-0.173604	-0.046016	9.815617	-0.004947	-0.001739	0.002022	-0.278520	0.988139	-124.037155
59151	6418076	-0.166194	-0.033142	9.820843	-0.002511	0.000177	0.000295			
59152	6418101	-0.175582	-0.035857	9.800755	-0.005013	0.002126	-0.003147			
59153	6418126	-0.159429	-0.068274	9.794455	-0.004466	0.001170	-0.001942			
59154	6418151	-0.174511	-0.054749	9.826637	-0.004373	-0.002131	-0.004266	-0.278215	0.988579	-124.030884
59155	6418176	-0.165719	-0.039498	9.828025	-0.007121	0.000019	-0.003800			
59156	6418201	-0.148603	-0.068552	9.817884	-0.007756	0.001821	-0.002182			
59157	6418226	-0.189539	-0.060123	9.796516	-0.004071	0.002529	-0.003466			
59158	6418251	-0.174008	-0.042443	9.796440	-0.007434	-0.000305	-0.001937	-0.279351	0.989401	-124.021194
59159	6418276	-0.142502	-0.060386	9.820729	-0.002614	-0.001194	-0.005610			
59160	6418301	-0.163947	-0.055382	9.817952	-0.001128	-0.001031	0.001054			
59161	6418326	-0.174596	-0.050893	9.824727	-0.007120	0.002024	-0.001992			
59162	6418351	-0.153269	-0.078220	9.828943	-0.003108	-0.001851	-0.004715	-0.278710	0.989350	-124.014297
59163	6418376	-0.171481	-0.053893	9.807457	-0.003771	-0.005154	-0.003125			
59164	6418401	-0.185963	-0.047912	9.809435	0.001170	0.001079	-0.000474			
59165	6418426	-0.170737	-0.044618	9.820868	-0.005066	-0.003934	0.002912			
59166	6418451	-0.174112	-0.077281	9.814664	-0.002435	-0.005265	-0.008066	-0.277508	0.987691	-124.004791
59167	6418476	-0.206329	-0.026720	9.832067	-0.002682	-0.002600	0.001568			
59168	6418501	-0.192537	-0.058768	9.826255	-0.005962	-0.002091	-0.000344			
59169	6418526	-0.187277	-0.045780	9.790754	-0.003436	0.000466	-0.005981			
59170	6418551	-0.182332	-0.069722	9.807513	-0.007072	0.000344	-0.003412	-0.277600	0.987381	-123.997864
59171	6418576	-0.182949	-0.031169	9.829545	-0.005089	0.000443	-0.004248			
59172	6418601	-0.173003	-0.050530	9.798835	-0.007883	0.001752	-0.001732			
59173	6418626	-0.153204	-0.068796	9.800647	-0.007296	-0.000626	-0.001296			
59174	6418651	-0.190198	-0.054718	9.815693	-0.002223	-0.000982	-0.000221	-0.278168	0.987705	-123.986038
59175	6418676	-0.173113	-0.049905	9.824712	-0.003490	-0.001790	-0.003172			
59176	6418701	-0.179880	-0.033067	9.802210	-0.001658	-0.000523	0.001892			
59177	6418726	-0.183280	-0.063344	9.791218	-0.007285	0.000852	-0.005841			
59178	6418751	-0.184211	-0.034000	9.800331	-0.001742	0.004256	-0.000325	-0.277546	0.988348	-123.975601
59179	6418776	-0.169518	-0.069609	9.813677	-0.003116	0.002341	-0.008537			
59180	6418801	-0.165042	-0.050031	9.833777	-0.006729	-0.004490	-0.001708			
59181	6418826	-0.178418	-0.036486	9.808922	-0.005117	-0.001046	-0.004895			
59182	6418851	-0.162224	-0.069893	9.805485	-0.003161	-0.006166	-0.000441	-0.277509	0.987241	-123.963959
59183	6418876	-0.167448	-0.045949	9.817017	-0.005075	0.000255	-0.000536			
59184	6418901	-0.173078	-0.080622	9.813703	-0.003716	-0.004236	0.002265			
59185	6418926	-0.168490	-0.069019	9.803610	-0.005974	0.000238	0.000817			
59186	6418951	-0.175329	-0.057357	9.808908	-0.008197	-0.000647	-0.002640	-0.278128	0.986863	-123.955643
59187	6418976	-0.187179	-0.060768	9.808014	-0.005646	0.000115	0.000693			
59188	6419001	-0.213679	-0.033582	9.811011	-0.001715	-0.005241	-0.001393			
59189	6419026	-0.168633	-0.051374	9.796412	-0.006968	-0.005344	-0.006326			
59190	6419051	-0.179547	-0.069496	9.823315	-0.007163	-0.000744	-0.000080	-0.278553	0.985504	-123.948288
59191	6419076	-0.179929	-0.044449	9.829049	-0.006108	0.000502	-0.000784			
59192	6419101	-0.179177	-0.048626	9.796947	-0.004898	0.000709	0.000180			
59193	6419126	-0.160634	-0.077233	9.788710	-0.005470	-0.001945	-0.001118			
59194	6419151	-0.171226	-0.046312	9.809361	0.000289	0.002418	-0.000463	-0.278207	0.985992	-123.938118
59195	6419176	-0.178441	-0.031606	9.800285	-0.006180	-0.001577	-0.002714			
59196	6419201	-0.158773	-0.025410	9.843326	-0.006810	-0.001776	-0.000791			
59197	6419226	-0.178341	-0.040686	9.805091	-0.004596	-0.002776	-0.000353			
59198	6419251	-0.162435	-0.021414	9.803570	-0.000356	0.000520	-0.004132	-0.278125	0.985434	-123.929832
59199	6419276	-0.182365	-0.031436	9.815174	-0.006254	-0.001258	-0.004509			
59200	6419301	-0.185387	-0.011879	9.804642	-0.008464	-0.000069	-0.002183			
59201	6419326	-0.178681	-0.060706	9.812765	-0.004274	0.000912	-0.002904			
59202	6419351	-0.162945	-0.060483	9.809809	-0.004131	0.002135	-0.005904	-0.278804	0.985913	-123.918198
59203	6419376	-0.179062	-0.028376	9.808927	-0.002597	0.002821	-0.001098			
59204	6419401	-0.174986	-0.054103	9.816579	-0.005540	0.002635	-0.001411			
59205	6419426	-0.166363	-0.054841	9.810776	-0.000890	0.001231	-0.002846			
59206	6419451	-0.157678	-0.070119	9.819367	-0.007252	0.004151	-0.002941	-0.278486	0.987706	-123.905533
59207	6419476	-0.188739	-0.037624	9.783578	-0.004748	0.000265	0.001848			
59208	6419501	-0.189765	-0.043235	9.805614	-0.005983	-0.001632	-0.000855			
59209	6419526	-0.181447	-0.066032	9.821870	0.003166	-0.003932	-0.004356			
59210	6419551	-0.206926	-0.045859	9.808111	-0.006282	-0.000151	-0.001168	-0.277809	0.987173	-123.895737
59211	6419576	-0.153530	-0.050481	9.814072	-0.003949	-0.001210	-0.001761			
59212	6419601	-0.176376	-0.055970	9.812275	-0.007764	0.004143	-0.003129			
59213	6419626	-0.190235	-0.048118	9.811859	-0.009626	0.000039	-0.004041			
59214	6419651	-0.162006	-0.066341	9.817478	-0.007586	0.004864	0.001489	-0.279300	0.988539	-123.885757
59215	6419676	-0.158234	-0.065153	9.836631	-0.007680	-0.000896	-0.003795			
59216	6419701	-0.167134	-0.065642	9.798804	-0.008231	0.002781	-0.000508			
59217	6419726	-0.184495	-0.051283	9.809921	-0.005287	0.002703	-0.002372			
59218	6419751	-0.167587	-0.060792	9.796887	-0.003497	-0.001132	0.001381	-0.280178	0.989296	-123.888268
59219	6419776	-0.165319	-0.046899	9.790166	-0.002235	-0.002931	-0.002414			
59220	6419801	-0.170560	-0.051513	9.803133	-0.007391	-0.001404	0.000046			
59221	6419826	-0.204611	-0.040120	9.807615	-0.006668	0.001508	-0.006671			
59222	6419851	-0.173814	-0.064043	9.809399	-0.007313	-0.002572	-0.007010	-0.280927	0.988750	-123.871284
59223	6419876	-0.191584	-0.052889	9.794696	-0.003496	-0.003521	-0.000104			
59224	6419901	-0.180293	-0.056938	9.821474	-0.005248	-0.002649	-0.000283			
59225	6419926	-0.143687	-0.090256	9.827997	0.000937	-0.004420	-0.004098			
59226	6419951	-0.172212	-0.057683	9.811852	-0.005792	0.002769	0.002307	-0.280209	0.987884	-123.867462
59227	6419976	-0.176706	-0.030164	9.810903	-0.003903	-0.004296	0.004768			
59228	6420001	-0.156988	-0.047893	9.801219	-0.009295	0.000055	0.001723			
59229	6420026	-0.171266	-0.043076	9.788363	-0.006588	0.001396	0.000763			
59230	6420051	-0.173136	-0.061066	9.815691	-0.005408	0.002778	0.001028	-0.281125	0.988117	-123.844307
59231	6420076	-0.178895	-0.044293	9.805168	-0.000067	-0.002296	0.000857			
59232	6420101	-0.185186	-0.035233	9.796574	-0.000505	-0.002897	-0.000679			
59233	6420126	-0.175245	-0.026080	9.791249	-0.006154	-0.000675	-0.003733			
59234	6420151	-0.145995	-0.088734	9.792553	0.002423	0.003877	-0.000787	-0.279081	0.988082	-123.838486
59235	6420176	-0.157551	-0.075853	9.802670	-0.003421	-0.003719	0.000085			
59236	6420201	-0.158186	-0.056119	9.786368	-0.002189	-0.002611	-0.004461			
59237	6420226	-0.141849	-0.071758	9.795397	-0.007716	-0.002061	-0.005728			
59238	6420251	-0.149451	-0.085505	9.823251	-0.004114	-0.002447	-0.005417	-0.278946	0.986765	-123.827957
59239	6420276	-0.156304	-0.062991	9.801711	-0.003107	-0.003979	-0.004730			
59240	6420301	-0.195407	-0.053834	9.791361	-0.006056	0.000954	0.000702			
59241	6420326	-0.195152	-0.046570	9.814359	-0.002851	-0.001906	-0.005478			
59242	6420351	-0.154531	-0.064635	9.816077	-0.006798	0.004105	0.000842	-0.278991	0.986893	-123.821579
59243	6420376	-0.158726	-0.076383	9.834795	-0.005531	-0.000015	-0.002959			
59244	6420401	-0.170253	-0.050812	9.802735	-0.003354	-0.001784	-0.000606			
59245	6420426	-0.173022	-0.065682	9.812336	-0.001565	0.002252	-0.002705			
59246	6420451	-0.177223	-0.039927	9.830071	0.000620	-0.002162	-0.001840	-0.277748	0.986888	-123.808601
59247	6420476	-0.161720	-0.026522	9.832406	-0.003801	0.000283	0.000048			
59248	6420501	-0.160156	-0.034512	9.824729	-0.006665	0.000176	0.004412			
59249	6420526	-0.179056	-0.033858	9.801334	-0.004172	-0.000317	-0.003546			
59250	6420551	-0.180390	-0.046315	9.810930	-0.003710	-0.000624	-0.000341	-0.277703	0.987075	-123.803780
59251	6420576	-0.179473	-0.044563	9.819557	-0.003006	-0.002748	-0.001767			
59252	6420601	-0.159962	-0.071371	9.792131	0.001070	-0.000419	-0.005740			
59253	6420626	-0.158302	-0.076420	9.778233	-0.005898	-0.006410	-0.000498			
59254	6420651	-0.173452	-0.063327	9.808511	-0.005388	-0.002795	-0.005798	-0.276959	0.985536	-123.790337
59255	6420676	-0.177300	-0.071649	9.823388	-0.004028	-0.000696	-0.002591			
59256	6420701	-0.168294	-0.065801	9.815197	-0.009315	0.000502	-0.003338			
59257	6420726	-0.172823	-0.078924	9.803239	-0.008322	0.001425	-0.000578			
59258	6420751	-0.163109	-0.057665	9.820427	-0.002335	-0.003831	-0.000171	-0.277743	0.985407	-123.780731
59259	6420776	-0.180193	-0.068398	9.827233	-0.003402	-0.002560	-0.004329			
59260	6420801	-0.175555	-0.035969	9.783588	-0.008711	0.000067	0.001794			
59261	6420826	-0.162141	-0.054059	9.801734	-0.004950	-0.002007	-0.002724			
59262	6420851	-0.190680	-0.054963	9.803319	-0.008304	-0.002970	-0.000726	-0.278720	0.984582	-123.771172
59263	6420876	-0.188258	-0.037727	9.829662	-0.005347	0.002311	-0.005446			
59264	6420901	-0.165190	-0.042699	9.800797	-0.005434	0.003019	-0.005259			
59265	6420926	-0.161733	-0.044495	9.800776	-0.000885	-0.003557	-0.005685			
59266	6420951	-0.152546	-0.070762	9.818462	-0.005533	0.002445	-0.001220	-0.278556	0.985425	-123.765144
59267	6420976	-0.152660	-0.059757	9.812234	-0.001065	0.004649	-0.002630			
59268	6421001	-0.185452	-0.044099	9.784108	-0.003707	-0.001281	-0.005598			
59269	6421026	-0.203266	-0.041264	9.799069	-0.006545	-0.000155	-0.000785			
59270	6421051	-0.182020	-0.037487	9.819089	-0.004612	0.003622	-0.003459	-0.278198	0.986642	-123.754768
59271	6421076	-0.169342	-0.026459	9.822850	-0.005092	0.002642	-0.002378			
59272	6421101	-0.184917	-0.038257	9.837317	-0.003777	-0.000490	0.000690			
59273	6421126	-0.156050	-0.057156	9.822797	-0.005680	-0.000781	0.002159			
59274	6421151	-0.163899	-0.066863	9.801750	-0.002801	0.000682	-0.002901	-0.278018	0.987183	-123.745354
59275	6421176	-0.159199	-0.065100	9.813708	-0.004081	-0.001149	-0.002269			
59276	6421201	-0.181081	-0.025459	9.805655	-0.007865	-0.000629	0.000374			
59277	6421226	-0.170652	-0.027236	9.808474	-0.003992	0.002345	0.000763			
59278	6421251	-0.152698	-0.059077	9.825657	-0.005451	-0.000139	0.000428	-0.278413	0.987486	-123.729210
59279	6421276	-0.180882	-0.040945	9.796559	-0.006203	0.001466	-0.000131			
59280	6421301	-0.159446	-0.050179	9.821855	-0.011085	0.000151	0.001028			
59281	6421326	-0.175120	-0.048690	9.812819	-0.006436	0.000097	-0.005008			
59282	6421351	-0.166867	-0.061495	9.817577	-0.006600	-0.004482	0.000475	-0.280095	0.987333	-123.717705
59283	6421376	-0.177819	-0.032939	9.832960	-0.007276	-0.001206	-0.002322			
59284	6421401	-0.184329	-0.039017	9.822930	-0.006023	-0.004540	-0.001062			
59285	6421426	-0.179145	-0.058807	9.791268	-0.000265	-0.002302	-0.000362			
59286	6421451	-0.173557	-0.056115	9.801321	-0.006601	0.001514	-0.005449	-0.280335	0.986637	-123.706940
59287	6421476	-0.188412	-0.059158	9.836861	-0.004148	-0.005023	-0.000237			
59288	6421501	-0.186077	-0.050266	9.809051	-0.008279	0.002070	-0.001281			
59289	6421526	-0.185793	-0.065212	9.794675	-0.008930	0.000706	-0.001799			
59290	6421551	-0.152847	-0.072314	9.797853	0.000204	0.000863	-0.002661	-0.280708	0.986687	-123.700096
59291	6421576	-0.170518	-0.069414	9.808977	-0.001819	-0.004081	-0.003250			
59292	6421601	-0.168812	-0.063357	9.817117	-0.002247	0.001465	-0.003991			
59293	6421626	-0.166807	-0.061225	9.804630	-0.002819	-0.000806	-0.003102			
59294	6421651	-0.171763	-0.045830	9.811850	-0.007400	-0.004873	0.005606	-0.280095	0.985747	-123.693153
59295	6421676	-0.166255	-0.043692	9.833860	-0.002284	-0.000982	0.002663			
59296	6421701	-0.166333	-0.039450	9.835309	-0.005622	-0.001182	-0.005277			
59297	6421726	-0.173685	-0.056999	9.829593	-0.004716	-0.001551	-0.005023			
59298	6421751	-0.137703	-0.074911	9.821748	-0.004782	-0.001489	-0.004384	-0.279946	0.985247	-123.687607
59299	6421776	-0.145567	-0.058090	9.828978	-0.008173	-0.001419	-0.003478			
59300	6421801	-0.144571	-0.058828	9.819860	-0.001854	-0.000718	-0.000671			
59301	6421826	-0.192431	-0.059063	9.790391	-0.009961	-0.003515	-0.003357			
59302	6421851	-0.173222	-0.052534	9.817605	-0.006530	-0.000538	0.001134	-0.281089	0.984599	-123.673103
59303	6421876	-0.175976	-0.053344	9.805156	-0.003497	-0.001720	-0.003558			
59304	6421901	-0.180848	-0.050727	9.818125	-0.002773	-0.000156	-0.001745			
59305	6421926	-0.182961	-0.035582	9.816694	-0.007887	-0.000054	-0.002125			
59306	6421951	-0.154472	-0.058217	9.801698	-0.002405	-0.001638	-0.003882	-0.280818	0.984334	-123.669632
59307	6421976	-0.170518	-0.044731	9.832454	-0.010321	-0.002158	-0.000204			
59308	6422001	-0.170515	-0.044077	9.826708	-0.001897	0.000636	-0.001176			
59309	6422026	-0.175311	-0.035499	9.817606	-0.003754	-0.001600	-0.004837			
59310	6422051	-0.185201	-0.041178	9.813828	-0.001064	-0.001548	-0.001827	-0.280606	0.983906	-123.657883
59311	6422076	-0.163183	-0.061231	9.831940	-0.007471	0.000860	-0.001603			
59312	6422101	-0.180082	-0.040325	9.819560	-0.004569	0.003870	-0.007428			
59313	6422126	-0.182149	-0.051953	9.807105	-0.001699	-0.003758	-0.002670			
59314	6422151	-0.170812	-0.065534	9.835810	-0.000170	0.000858	-0.001755	-0.279960	0.984405	-123.646782
59315	6422176	-0.161876	-0.042241	9.807007	-0.004846	0.003237	0.001794			
59316	6422201	-0.135780	-0.066502	9.803522	-0.000738	0.000067	-0.003877			
59317	6422226	-0.168310	-0.054120	9.800320	-0.006239	-0.001769	-0.002779			
59318	6422251	-0.163293	-0.045710	9.813730	-0.005054	0.003418	-0.000894	-0.279721	0.985347	-123.629456
59319	6422276	-0.182507	-0.033264	9.817653	-0.009285	0.001137	-0.006792			
59320	6422301	-0.153864	-0.066826	9.805532	-0.003478	-0.002374	-0.004394			
59321	6422326	-0.202121	-0.056498	9.799062	-0.011876	0.000784	0.000076			
59322	6422351	-0.184978	-0.059747	9.813831	-0.005537	0.000308	-0.002123	-0.281405	0.985571	-123.624611
59323	6422376	-0.193661	-0.054081	9.814358	0.000027	0.000270	-0.005737			
59324	6422401	-0.162146	-0.051580	9.793596	-0.004788	0.003302	-0.000127			
59325	6422426	-0.175110	-0.047197	9.805636	-0.008059	-0.000833	-0.002900			
59326	6422451	-0.148021	-0.044127	9.815563	-0.004183	-0.004178	0.000022	-0.281191	0.985610	-123.616875
59327	6422476	-0.163182	-0.063096	9.837204	0.000338	-0.001326	-0.002342			
59328	6422501	-0.154178	-0.043911	9.798813	-0.001232	-0.000058	0.000608			
59329	6422526	-0.178529	-0.045071	9.817152	-0.008225	-0.001404	0.002421			
59330	6422551	-0.169769	-0.065422	9.827656	-0.001246	0.000587	0.001389	-0.279998	0.985549	-123.609734
59331	6422576	-0.188058	-0.050053	9.827744	-0.006120	-0.001444	-0.003096			
59332	6422601	-0.166366	-0.065721	9.814696	-0.006093	-0.000085	-0.000528			
59333	6422626	-0.178149	-0.073296	9.812373	0.001824	-0.000088	-0.006320			
59334	6422651	-0.173574	-0.055189	9.802268	-0.006314	0.000490	-0.003280	-0.279752	0.985626	-123.600937
59335	6422676	-0.171694	-0.066572	9.833423	-0.009309	0.001851	-0.006339			
59336	6422701	-0.164528	-0.051199	9.801257	-0.004500	-0.002126	-0.002851			
59337	6422726	-0.173409	-0.061701	9.796524	-0.004065	-0.001663	-0.000669			
59338	6422751	-0.174453	-0.064284	9.809940	-0.005297	-0.001104	-0.002651	-0.280431	0.985435	-123.596687
59339	6422776	-0.186600	-0.036674	9.792749	-0.005037	0.002770	-0.002432			
59340	6422801	-0.188397	-0.047518	9.787963	-0.003697	0.003123	-0.001287			
59341	6422826	-0.184228	-0.049909	9.821975	-0.005409	0.000572	-0.000265			
59342	6422851	-0.172034	-0.061829	9.809448	0.000703	-0.002544	-0.000501	-0.279696	0.986240	-123.584747
59343	6422876	-0.158128	-0.041089	9.825193	-0.005209	-0.001812	-0.000863			
59344	6422901	-0.160495	-0.048740	9.825215	-0.007769	0.002338	-0.002119			
59345	6422926	-0.186084	-0.080916	9.800903	-0.005591	-0.000277	-0.005144			
59346	6422951	-0.175626	-0.049695	9.818101	-0.002702	-0.000420	-0.004385	-0.280102	0.986452	-123.573792
59347	6422976	-0.181600	-0.036368	9.835386	-0.007114	-0.000362	-0.002894			
59348	6423001	-0.163687	-0.052338	9.811818	-0.005695	0.001273	-0.005464			
59349	6423026	-0.178903	-0.055988	9.821467	-0.003186	0.000736	-0.002129			
59350	6423051	-0.174385	-0.043338	9.837264	-0.001803	-0.000732	-0.005607	-0.280019	0.986826	-123.569382
59351	6423076	-0.162777	-0.063193	9.838644	-0.006774	0.003263	-0.000958			
59352	6423101	-0.148716	-0.059681	9.805984	-0.006466	-0.002807	-0.003234			
59353	6423126	-0.181188	-0.059711	9.816213	-0.003336	-0.002365	-0.001059			
59354	6423151	-0.189232	-0.066030	9.821047	-0.002375	-0.002673	-0.002982	-0.280082	0.986415	-123.562424
59355	6423176	-0.156980	-0.054152	9.809856	-0.007749	0.001431	-0.003788			
59356	6423201	-0.147839	-0.052771	9.793513	-0.003499	0.000797	-0.002071			
59357	6423226	-0.156812	-0.062271	9.815599	-0.003000	-0.004941	-0.000757			
59358	6423251	-0.170612	-0.038482	9.829097	-0.007762	0.000012	-0.002579	-0.280586	0.986262	-123.547607
59359	6423276	-0.193673	-0.026995	9.841186	0.000300	-0.000235	-0.003368			
59360	6423301	-0.157935	-0.058873	9.810344	-0.004889	0.004393	-0.001922			
59361	6423326	-0.163117	-0.065766	9.822838	-0.003780	0.003769	-0.001538			
59362	6423351	-0.172181	-0.054772	9.811365	-0.002706	0.000039	-0.001046	-0.279521	0.987646	-123.538414
59363	6423376	-0.160405	-0.047255	9.821856	-0.007942	-0.002773	-0.004704			
59364	6423401	-0.202813	-0.049541	9.813443	-0.008304	0.002778	-0.005250			
59365	6423426	-0.167577	-0.068517	9.780674	-0.006598	0.001650	-0.002250			
59366	6423451	-0.156601	-0.052427	9.826624	-0.003310	0.000802	-0.002135	-0.280631	0.988233	-123.526894
59367	6423476	-0.172703	-0.048619	9.809931	-0.002876	-0.002745	-0.000486			
59368	6423501	-0.178106	-0.035291	9.801809	-0.009383	0.000563	-0.004043			
59369	6423526	-0.204042	-0.045444	9.794272	-0.006123	-0.003503	-0.000730			
59370	6423551	-0.182560	-0.061050	9.809031	-0.002687	-0.003004	-0.005428	-0.281003	0.987225	-123.514885
59371	6423576	-0.173282	-0.036232	9.803702	-0.005890	-0.005127	-0.006385			
59372	6423601	-0.173217	-0.037202	9.778296	-0.003251	0.003193	-0.002056			
59373	6423626	-0.183371	-0.073310	9.801368	-0.005853	0.002109	-0.005133			
59374	6423651	-0.193327	-0.033038	9.804280	0.001518	-0.004151	-0.000887	-0.280298	0.986895	-123.508125
59375	6423676	-0.165688	-0.045345	9.818530	-0.003947	0.000463	-0.004309			
59376	6423701	-0.194686	-0.041209	9.803331	-0.004946	-0.002459	-0.004454			
59377	6423726	-0.199634	-0.039090	9.820609	0.000027	0.002468	-0.004250			
59378	6423751	-0.180792	-0.062599	9.816201	-0.005975	0.006774	0.002140	-0.279780	0.988180	-123.505325
59379	6423776	-0.170800	-0.054045	9.819989	-0.011924	-0.000122	-0.002493			
59380	6423801	-0.203722	-0.045739	9.810573	-0.009348	-0.002670	-0.003929			
59381	6423826	-0.192933	-0.029068	9.815302	-0.008230	-0.005414	0.001121			
59382	6423851	-0.216223	-0.024120	9.787625	-0.003737	-0.000182	-0.004247	-0.281893	0.987216	-123.494476
59383	6423876	-0.158887	-0.054224	9.815622	-0.004360	-0.002706	-0.003819			
59384	6423901	-0.168202	-0.068038	9.806089	-0.009234	0.000121	0.001337			
59385	6423926	-0.167954	-0.059628	9.820936	-0.004590	0.002912	-0.001220			
59386	6423951	-0.170670	-0.061484	9.813284	-0.007083	-0.001521	-0.001812	-0.282853	0.987298	-123.490067
59387	6423976	-0.168244	-0.066059	9.812784	0.001973	-0.000332	-0.000036			
59388	6424001	-0.174027	-0.056670	9.803228	-0.008136	-0.000252	-0.001808			
59389	6424026	-0.200440	-0.035092	9.801926	-0.005762	-0.004330	0.003687			
59390	6424051	-0.161539	-0.070797	9.812755	-0.000586	-0.000505	-0.004199	-0.281979	0.986764	-123.475899
59391	6424076	-0.177955	-0.053616	9.824343	-0.002916	-0.003909	-0.003439			
59392	6424101	-0.162548	-0.054384	9.791189	-0.004615	-0.000453	-0.002521			
59393	6424126	-0.182689	-0.053426	9.808069	-0.003000	-0.000678	-0.001566			
59394	6424151	-0.178567	-0.015999	9.841108	-0.005612	-0.001298	-0.000791	-0.281640	0.986098	-123.467186
59395	6424176	-0.159619	-0.035272	9.818972	-0.003065	0.001125	-0.000979			
59396	6424201	-0.183505	-0.019563	9.797030	0.000614	-0.000232	-0.007533			
59397	6424226	-0.188878	-0.050215	9.808583	-0.004004	-0.001797	-0.002652			
59398	6424251	-0.172332	-0.042408	9.806574	-0.004323	0.000595	-0.000396	-0.280541	0.986298	-123.459854
59399	6424276	-0.153769	-0.050527	9.829962	0.000073	-0.001147	-0.004332			
59400	6424301	-0.188465	-0.055823	9.830624	-0.007118	-0.002365	-0.002842			
59401	6424326	-0.192328	-0.046987	9.809550	-0.007920	0.002782	-0.005759			
59402	6424351	-0.158874	-0.062838	9.821377	-0.003734	0.004287	-0.000061	-0.280579	0.987045	-123.449615
59403	6424376	-0.161203	-0.054884	9.796463	-0.003105	0.004487	-0.003521			
59404	6424401	-0.156376	-0.071888	9.823279	-0.005651	0.001656	-0.007191			
59405	6424426	-0.161740	-0.086758	9.799825	-0.006679	0.000104	-0.000913			
59406	6424451	-0.179051	-0.048566	9.830098	-0.005442	0.000951	-0.006801	-0.280944	0.988310	-123.439606
59407	6424476	-0.148221	-0.039560	9.824196	-0.008449	0.003484	-0.003900			
59408	6424501	-0.165552	-0.058718	9.825235	-0.004452	-0.001468	0.000870			
59409	6424526	-0.152481	-0.070702	9.811757	-0.004299	0.001495	-0.003149			
59410	6424551	-0.178049	-0.024838	9.862198	-0.007494	-0.004436	-0.001699	-0.281829	0.988419	-123.430496
59411	6424576	-0.168981	-0.010225	9.816621	-0.003493	0.002737	-0.001097			
59412	6424601	-0.175047	-0.045618	9.796525	-0.007245	-0.003904	0.003754			
59413	6424626	-0.170151	-0.063814	9.815194	-0.000463	-0.002505	-0.004275			
59414	6424651	-0.161925	-0.074154	9.813721	-0.004041	-0.004703	-0.003953	-0.281354	0.987463	-123.418716
59415	6424676	-0.194123	-0.019638	9.821536	-0.003269	-0.002560	-0.003174			
59416	6424701	-0.161324	-0.053903	9.818504	-0.011384	0.000910	-0.006795			
59417	6424726	-0.176975	-0.058654	9.813319	-0.003265	0.003780	-0.000831			
59418	6424751	-0.178579	-0.047038	9.827703	-0.003514	-0.000818	-0.003104	-0.281787	0.987886	-123.407616
59419	6424776	-0.181939	-0.039790	9.817171	-0.003767	-0.000881	-0.001049			
59420	6424801	-0.168742	-0.056373	9.791701	-0.004986	0.001028	-0.003731			
59421	6424826	-0.180273	-0.052792	9.799910	-0.003116	0.000677	-0.003162			
59422	6424851	-0.159541	-0.042394	9.816580	-0.003639	0.002593	-0.008594	-0.281376	0.988606	-123.394485
59423	6424876	-0.196553	-0.049524	9.822509	-0.002436	-0.005268	-0.008442			
59424	6424901	-0.204364	-0.046510	9.829739	-0.006717	0.003326	-0.003773			
59425	6424926	-0.198443	-0.046411	9.799521	-0.005490	0.001030	0.000505			
59426	6424951	-0.172799	-0.058198	9.841566	-0.009839	-0.001451	-0.005844	-0.282255	0.988506	-123.389542
59427	6424976	-0.171194	-0.061005	9.816641	-0.003168	-0.001581	0.000545			
59428	6425001	-0.174219	-0.054591	9.829597	-0.000916	0.002205	-0.000845			
59429	6425026	-0.151553	-0.063945	9.804564	-0.003898	-0.000885	-0.002085			
59430	6425051	-0.160079	-0.035242	9.818972	-0.001554	-0.000271	-0.003682	-0.280964	0.988676	-123.381546
59431	6425076	-0.174029	-0.050400	9.796047	-0.009844	-0.003323	-0.004575			
59432	6425101	-0.173609	-0.048340	9.791731	-0.006086	0.001398	-0.002700			
59433	6425126	-0.191514	-0.060925	9.796137	-0.001577	-0.001293	0.000103			
59434	6425151	-0.162234	-0.049419	9.810352	-0.001130	-0.001815	-0.007345	-0.280997	0.988198	-123.376915
59435	6425176	-0.145807	-0.084630	9.831851	-0.002058	0.001796	-0.001687			
59436	6425201	-0.153899	-0.057941	9.786356	0.000583	0.000739	-0.005476			
59437	6425226	-0.148248	-0.066467	9.816050	-0.007036	-0.001208	-0.005916			
59438	6425251	-0.178075	-0.041019	9.803251	-0.007240	0.003900	0.000077	-0.280613	0.989187	-123.369102
59439	6425276	-0.152809	-0.051819	9.818945	-0.004715	0.004646	-0.005569			
59440	6425301	-0.203436	-0.025210	9.805299	-0.005163	-0.001492	-0.003541			
59441	6425326	-0.185209	-0.036851	9.804728	-0.004813	-0.003926	0.003423			
59442	6425351	-0.185354	-0.031826	9.818144	-0.005865	-0.001638	-0.004444	-0.280911	0.989079	-123.357971
59443	6425376	-0.178487	-0.045708	9.801344	-0.005455	0.004192	-0.000761			
59444	6425401	-0.164547	-0.063463	9.824281	-0.005354	-0.001562	-0.004385			
59445	6425426	-0.182997	-0.041572	9.839706	-0.004220	0.001170	-0.003727			
59446	6425451	-0.175312	-0.048623	9.840149	-0.003210	-0.000361	-0.003681	-0.280882	0.989810	-123.347084
59447	6425476	-0.167180	-0.045974	9.829081	-0.004867	-0.000449	-0.000724			
59448	6425501	-0.157944	-0.047770	9.800750	-0.000599	0.000145	-0.000988			
59449	6425526	-0.158628	-0.065205	9.791653	-0.001626	0.002517	0.001206			
59450	6425551	-0.154310	-0.051287	9.845317	-0.005409	-0.001952	-0.003807	-0.280012	0.990092	-123.336632
59451	6425576	-0.154205	-0.046653	9.819426	-0.004126	-0.003798	-0.001645			
59452	6425601	-0.184403	-0.067225	9.804735	-0.006093	0.001654	-0.004493			
59453	6425626	-0.161691	-0.090560	9.797904	-0.006223	0.002249	0.001408			
59454	6425651	-0.182821	-0.081097	9.815269	-0.006491	-0.001647	-0.000851	-0.280638	0.990117	-123.328262
59455	6425676	-0.177572	-0.037039	9.793668	-0.004949	0.002596	0.003141			
59456	6425701	-0.171084	-0.063153	9.803695	-0.001316	0.000519	0.000167			
59457	6425726	-0.178134	-0.044736	9.831053	-0.004964	-0.001228	0.000748			
59458	6425751	-0.185290	-0.037469	9.818142	-0.001979	0.001344	-0.001040	-0.279851	0.990833	-123.320786
59459	6425776	-0.200048	-0.036996	9.807199	-0.000621	0.000845	-0.004382			
59460	6425801	-0.161502	-0.042076	9.826182	-0.005673	0.001098	0.002363			
59461	6425826	-0.180295	-0.062832	9.832029	-0.006273	-0.001067	-0.006874			
59462	6425851	-0.185129	-0.057680	9.835882	-0.001514	-0.003290	0.000983	-0.279215	0.990732	-123.312714
59463	6425876	-0.179138	-0.078880	9.824833	-0.007674	0.003046	-0.003836			
59464	6425901	-0.190815	-0.057114	9.822486	-0.005411	0.000839	0.001213			
59465	6425926	-0.189943	-0.042659	9.809065	-0.005779	-0.000209	-0.002509			
59466	6425951	-0.143839	-0.064566	9.789662	-0.004652	0.000320	-0.005335	-0.279938	0.991545	-123.302811
59467	6425976	-0.176495	-0.050060	9.810436	-0.002857	-0.001246	0.000940			
59468	6426001	-0.170085	-0.057361	9.797950	-0.001158	-0.004251	0.002648			
59469	6426026	-0.162832	-0.045159	9.808450	-0.005224	0.002839	0.000317			
59470	6426051	-0.188591	-0.072501	9.810020	-0.002095	-0.003305	-0.000039	-0.278880	0.990930	-123.282799
59471	6426076	-0.172654	-0.060506	9.813772	-0.001034	0.001816	0.000691			
59472	6426101	-0.164929	-0.065790	9.819965	-0.006467	-0.000606	-0.001486			
59473	6426126	-0.179315	-0.055076	9.820517	-0.008129	-0.006568	0.002459			
59474	6426151	-0.201873	-0.048823	9.830691	-0.004464	-0.002758	0.003050	-0.279075	0.990020	-123.273308
59475	6426176	-0.167673	-0.034345	9.812784	-0.003119	-0.001460	-0.003810			
59476	6426201	-0.189122	-0.050671	9.772629	-0.007282	-0.003277	-0.004193			
59477	6426226	-0.185606	-0.049759	9.808574	-0.008224	0.002325	-0.004417			
59478	6426251	-0.176528	-0.050535	9.808993	-0.004950	0.000130	-0.000915	-0.279813	0.989929	-123.262810
59479	6426276	-0.158645	-0.067735	9.802198	-0.001149	0.000833	-0.004895			
59480	6426301	-0.184957	-0.052282	9.790354	-0.005868	0.000431	-0.004685			
59481	6426326	-0.173209	-0.051518	9.817123	-0.001188	0.000185	-0.004768			
59482	6426351	-0.164607	-0.052334	9.811812	-0.003955	-0.000879	0.000870	-0.278916	0.990255	-123.257813
59483	6426376	-0.150438	-0.040241	9.809351	-0.001580	-0.001167	0.001565			
59484	6426401	-0.159559	-0.063958	9.796929	-0.006430	-0.003509	0.001250			
59485	6426426	-0.175144	-0.073005	9.788865	-0.004086	-0.001350	-0.005794			
59486	6426451	-0.152514	-0.055047	9.784429	-0.000826	0.003566	0.001462	-0.278099	0.990146	-123.245316
59487	6426476	-0.158257	-0.063653	9.809386	-0.006126	-0.001180	-0.000085			
59488	6426501	-0.159967	-0.050590	9.760981	-0.007713	-0.001471	0.000116			
59489	6426526	-0.147407	-0.046604	9.792071	-0.004566	-0.000058	-0.001241			
59490	6426551	-0.159474	-0.053012	9.825693	-0.008945	0.001031	-0.001222	-0.279350	0.990155	-123.239082
59491	6426576	-0.151235	-0.065707	9.828048	-0.005513	0.001934	-0.000395			
59492	6426601	-0.189332	-0.060720	9.813855	-0.003430	0.002810	0.000252			
59493	6426626	-0.179244	-0.062487	9.812366	-0.005427	-0.001174	-0.003162			
59494	6426651	-0.176115	-0.052641	9.822421	-0.004753	0.002004	-0.001802	-0.279431	0.991200	-123.229454
59495	6426676	-0.187658	-0.041308	9.816246	-0.003514	0.001389	0.001077			
59496	6426701	-0.199999	-0.061909	9.788033	-0.004268	-0.005540	-0.001329			
59497	6426726	-0.173730	-0.046269	9.810418	-0.004283	-0.000693	-0.000344			
59498	6426751	-0.196121	-0.037789	9.798555	-0.001672	0.001867	-0.000203	-0.278728	0.991019	-123.216782
59499	6426776	-0.175678	-0.050748	9.819541	-0.007221	0.002924	-0.005381			
59500	6426801	-0.173884	-0.070525	9.808515	-0.013828	-0.000481	-0.002886			
59501	6426826	-0.173616	-0.054772	9.804665	-0.007069	0.000481	-0.001423			
59502	6426851	-0.165442	-0.067776	9.829557	-0.003433	-0.000867	0.002733	-0.280592	0.991554	-123.205620
59503	6426876	-0.167073	-0.061806	9.836273	-0.006607	0.000039	-0.000913			
59504	6426901	-0.166970	-0.045117	9.799844	-0.008836	-0.002463	-0.001495			
59505	6426926	-0.189046	-0.036318	9.800426	-0.004061	0.002140	-0.005004			
59506	6426951	-0.166514	-0.052248	9.804152	-0.003554	0.002547	-0.001934	-0.281246	0.992123	-123.199692
59507	6426976	-0.172487	-0.041836	9.830544	-0.005342	0.002778	0.000772			
59508	6427001	-0.176109	-0.052533	9.816663	-0.004199	0.002725	-0.002892			
59509	6427026	-0.182798	-0.044524	9.812861	-0.005065	-0.000390	-0.000337			
59510	6427051	-0.192902	-0.045845	9.828257	-0.006187	0.000884	-0.000842	-0.281561	0.993227	-123.188828
59511	6427076	-0.168656	-0.073797	9.814720	-0.006060	0.000690	-0.001293			
59512	6427101	-0.148208	-0.057110	9.792561	-0.005710	-0.002146	-0.000028			
59513	6427126	-0.143646	-0.058972	9.829921	-0.002150	-0.001244	0.000414			
59514	6427151	-0.173293	-0.050218	9.821909	-0.002232	0.001408	0.000559	-0.281203	0.993292	-123.179871
59515	6427176	-0.168098	-0.043392	9.814225	-0.001793	0.004140	0.004803			
59516	6427201	-0.161987	-0.070930	9.816593	-0.006406	-0.002213	0.003245			
59517	6427226	-0.173405	-0.070873	9.808511	-0.002001	-0.000341	-0.003618			
59518	6427251	-0.184051	-0.030989	9.824369	-0.009020	0.003546	0.001296	-0.281270	0.994267	-123.158829
59519	6427276	-0.173855	-0.047689	9.841579	-0.005281	-0.001687	-0.001688			
59520	6427301	-0.169266	-0.082323	9.785475	-0.000268	-0.002831	-0.006716			
59521	6427326	-0.182297	-0.054683	9.829165	-0.001650	-0.003503	-0.006519			
59522	6427351	-0.178598	-0.077240	9.811894	-0.007878	0.001429	-0.003077	-0.280802	0.993564	-123.156754
59523	6427376	-0.162125	-0.069602	9.824739	-0.005409	0.000514	-0.000724			
59524	6427401	-0.168816	-0.048883	9.798891	-0.005618	-0.003241	-0.002210			
59525	6427426	-0.164505	-0.061334	9.809421	-0.005595	0.000113	-0.002712			
59526	6427451	-0.176007	-0.060382	9.832486	-0.004652	-0.005548	-0.002290	-0.281197	0.992633	-123.142754
59527	6427476	-0.172907	-0.037768	9.811376	-0.008243	0.002708	-0.007042			
59528	6427501	-0.175439	-0.054179	9.799881	-0.002070	-0.002211	-0.002927			
59529	6427526	-0.175228	-0.037553	9.798924	-0.002511	0.003982	-0.000514			
59530	6427551	-0.152548	-0.059184	9.805519	-0.003734	-0.002111	-0.002016	-0.280928	0.993214	-123.134941
59531	6427576	-0.164276	-0.039407	9.807020	-0.001730	0.001213	-0.003482			
59532	6427601	-0.168216	-0.041268	9.826682	-0.005205	0.002193	-0.002828			
59533	6427626	-0.160853	-0.036274	9.787350	-0.007974	0.000398	-0.001670			
59534	6427651	-0.152363	-0.056380	9.837155	-0.004824	0.002263	-0.002058	-0.281106	0.994325	-123.126129
59535	6427676	-0.161213	-0.051114	9.799332	-0.001796	-0.000465	-0.001699			
59536	6427701	-0.165141	-0.087071	9.815179	-0.006601	-0.000218	0.000688			
59537	6427726	-0.159930	-0.033884	9.788781	-0.004075	0.000924	-0.000204			
59538	6427751	-0.183549	-0.035388	9.836828	-0.001585	-0.001566	-0.008044	-0.280471	0.994383	-123.122520
59539	6427776	-0.166928	-0.061212	9.831000	-0.006643	-0.005327	-0.003247			
59540	6427801	-0.176084	-0.052024	9.814273	-0.004910	0.003169	-0.000317			
59541	6427826	-0.176007	-0.056421	9.820498	-0.004850	-0.002898	0.001058			
59542	6427851	-0.169462	-0.044748	9.809445	-0.004014	0.000989	0.000753	-0.280728	0.994037	-123.104599
59543	6427876	-0.174312	-0.070431	9.808023	-0.002767	-0.004221	0.000466			
59544	6427901	-0.155298	-0.068091	9.794997	-0.003716	0.001173	-0.006749			
59545	6427926	-0.160536	-0.073042	9.804609	-0.006105	0.004043	-0.004736			
59546	6427951	-0.152430	-0.072975	9.806005	-0.005354	0.002572	-0.003593	-0.280661	0.994777	-123.090622
59547	6427976	-0.166849	-0.061931	9.814710	-0.007319	-0.002241	-0.003162			
59548	6428001	-0.177468	-0.052338	9.805166	-0.001462	0.001495	0.002097			
59549	6428026	-0.155133	-0.061246	9.841967	-0.005892	-0.002410	-0.000863			
59550	6428051	-0.180810	-0.061856	9.832029	-0.004745	0.001684	-0.001606	-0.280779	0.994813	-123.079765
59551	6428076	-0.151009	-0.051161	9.840505	-0.003731	0.002223	0.000243			
59552	6428101	-0.169200	-0.031157	9.813266	-0.008535	0.002193	-0.000955			
59553	6428126	-0.156072	-0.038744	9.797859	-0.006111	-0.001825	-0.001045			
59554	6428151	-0.170978	-0.008181	9.832432	-0.004672	-0.002839	-0.003688	-0.281421	0.995024	-123.070953
59555	6428176	-0.154130	-0.058714	9.833330	-0.005639	-0.002727	-0.003876			
59556	6428201	-0.155893	-0.027614	9.814636	-0.005278	0.002314	-0.001730			
59557	6428226	-0.170125	-0.067704	9.818083	-0.004379	-0.001402	0.002158			
59558	6428251	-0.187697	-0.040990	9.825348	-0.005479	0.000568	-0.004181	-0.281744	0.995085	-123.059204
59559	6428276	-0.179433	-0.059962	9.834891	-0.002193	0.000183	0.001323			
59560	6428301	-0.208818	-0.061002	9.813480	-0.004806	0.001220	-0.006735			
59561	6428326	-0.191144	-0.060767	9.812427	-0.007738	-0.002766	-0.001176			
59562	6428351	-0.181015	-0.033457	9.803265	-0.005759	0.001076	-0.006355	-0.282040	0.995295	-123.059532
59563	6428376	-0.167537	-0.044215	9.803679	-0.010163	0.002937	-0.002936			
59564	6428401	-0.166968	-0.060127	9.820459	-0.006439	0.000621	-0.002129			
59565	6428426	-0.167315	-0.036019	9.830034	-0.001360	-0.000267	-0.004704			
59566	6428451	-0.171612	-0.065945	9.827187	-0.003310	-0.003456	-0.002345	-0.282445	0.995508	-123.049332
59567	6428476	-0.172253	-0.043382	9.809448	-0.006320	-0.005516	-0.003950			
59568	6428501	-0.189118	-0.036504	9.809063	-0.006606	0.001906	-0.002567			
59569	6428526	-0.181230	-0.057821	9.815257	-0.003868	0.000547	0.001848			
59570	6428551	-0.189560	-0.042454	9.822958	-0.009337	-0.000729	-0.002059	-0.283532	0.995203	-123.036491
59571	6428576	-0.168257	-0.029632	9.813744	-0.003678	0.000210	-0.004894			
59572	6428601	-0.178194	-0.029154	9.805161	-0.005060	-0.000721	-0.005402			
59573	6428626	-0.150018	-0.068571	9.795449	-0.008549	0.000450	-0.002953			
59574	6428651	-0.142226	-0.074883	9.785342	-0.005156	-0.003749	-0.001898	-0.284112	0.994888	-123.022934
59575	6428676	-0.194154	-0.041580	9.802845	0.000776	-0.005199	-0.002748			
59576	6428701	-0.146049	-0.079939	9.798783	-0.004694	-0.002393	-0.004332			
59577	6428726	-0.188029	-0.049242	9.808103	-0.003424	0.006348	-0.005431			
59578	6428751	-0.168436	-0.049518	9.809435	-0.005223	-0.001492	-0.002590	-0.283276	0.994735	-123.017227
59579	6428776	-0.146447	-0.065686	9.828012	-0.006348	-0.000279	-0.001431			
59580	6428801	-0.162137	-0.049159	9.792625	-0.006190	-0.001186	-0.001238			
59581	6428826	-0.164218	-0.075290	9.794563	-0.003330	-0.000422	0.000614			
59582	6428851	-0.173809	-0.044640	9.828156	-0.005065	-0.000849	-0.005655	-0.283621	0.994585	-123.006439
59583	6428876	-0.216018	-0.012514	9.803909	-0.004768	0.000913	0.001983			
59584	6428901	-0.179971	-0.045576	9.822435	-0.004204	-0.003345	-0.001830			
59585	6428926	-0.159645	-0.067399	9.810829	-0.001800	-0.000469	-0.003235			
59586	6428951	-0.168408	-0.053382	9.815191	-0.004333	0.000781	-0.001678	-0.283125	0.994531	-123.000099
59587	6428976	-0.154621	-0.053313	9.819430	-0.005603	-0.001892	-0.005858			
59588	6429001	-0.177562	-0.075168	9.799419	-0.010575	-0.000693	-0.008661			
59589	6429026	-0.155949	-0.067275	9.832388	-0.006960	-0.003394	-0.002788			
59590	6429051	-0.185201	-0.044132	9.816700	-0.003894	-0.001076	-0.001562	-0.284372	0.993747	-122.986740
59591	6429076	-0.164227	-0.047621	9.817564	-0.002459	-0.000033	-0.005478			
59592	6429101	-0.163616	-0.048452	9.808447	-0.001584	-0.005759	-0.006086			
59593	6429126	-0.164592	-0.048427	9.801757	-0.005998	0.000955	-0.000198			
59594	6429151	-0.165979	-0.059485	9.814696	-0.004129	0.000665	-0.000080	-0.283759	0.993388	-122.979141
59595	6429176	-0.157106	-0.075831	9.803636	-0.003500	-0.003393	0.000404			
59596	6429201	-0.154346	-0.060269	9.780131	-0.004537	0.003630	0.002371			
59597	6429226	-0.195438	-0.030104	9.821545	-0.004719	0.003174	-0.001405			
59598	6429251	-0.174388	-0.068266	9.819532	-0.004861	-0.004968	-0.000428	-0.283608	0.993410	-122.966232
59599	6429276	-0.164990	-0.065614	9.811822	-0.003007	0.005986	0.002959			
59600	6429301	-0.173318	-0.041559	9.812331	-0.006658	-0.000481	-0.001042			
59601	6429326	-0.179377	-0.066239	9.840166	-0.001873	0.001602	-0.004180			
59602	6429351	-0.180358	-0.043882	9.806622	-0.005773	-0.000671	-0.006425	-0.283438	0.994576	-122.960716
59603	6429376	-0.174679	-0.039881	9.795559	-0.001684	0.000060	0.000104			
59604	6429401	-0.176137	-0.039446	9.797488	-0.005321	0.003870	-0.001144			
59605	6429426	-0.157556	-0.050440	9.821838	0.000593	0.001079	0.001636			
59606	6429451	-0.170007	-0.050289	9.831021	-0.001462	0.003028	-0.001611	-0.281895	0.995972	-122.948349
59607	6429476	-0.164096	-0.052689	9.803664	-0.003070	0.001395	-0.000653			
59608	6429501	-0.161128	-0.053357	9.786873	-0.003570	0.000925	-0.002071			
59609	6429526	-0.184884	-0.047579	9.767813	-0.002261	0.000106	-0.001688			
59610	6429551	-0.169007	-0.040535	9.811360	-0.004536	-0.002770	-0.000031	-0.281159	0.996165	-122.937668
59611	6429576	-0.131739	-0.051524	9.815484	-0.005350	-0.001891	-0.005220			
59612	6429601	-0.169116	-0.037672	9.814703	-0.000225	0.000267	-0.004834			
59613	6429626	-0.168954	-0.039317	9.796494	-0.001526	-0.001031	0.000612			
59614	6429651	-0.163857	-0.035622	9.805576	-0.004929	0.003554	-0.001855	-0.280238	0.996531	-122.926659
59615	6429676	-0.161631	-0.050552	9.793097	-0.000541	-0.001663	0.000603			
59616	6429701	-0.178608	-0.032012	9.802772	-0.007686	-0.002563	-0.000665			
59617	6429726	-0.152583	-0.048113	9.792101	-0.006531	-0.002876	-0.003105			
59618	6429751	-0.160260	-0.058101	9.821857	-0.003557	-0.003594	-0.002153	-0.280201	0.995247	-122.919456
59619	6429776	-0.180469	-0.041907	9.826756	-0.008263	-0.003989	0.003949			
59620	6429801	-0.157670	-0.062793	9.784935	-0.007220	0.000924	-0.003280			
59621	6429826	-0.156287	-0.075073	9.818965	-0.001998	-0.000077	-0.000156			
59622	6429851	-0.177820	-0.041989	9.838721	-0.001758	0.006382	-0.005308	-0.280296	0.995961	-122.911499
59623	6429876	-0.153392	-0.055681	9.852504	-0.005291	0.001431	0.002880			
59624	6429901	-0.155622	-0.057340	9.837170	-0.003837	-0.002880	-0.003107			
59625	6429926	-0.175038	-0.060513	9.815221	0.000446	0.003518	-0.002445			
59626	6429951	-0.174634	-0.061231	9.826723	-0.002384	0.004318	-0.001274	-0.279217	0.997119	-122.900787
59627	6429976	-0.181794	-0.040517	9.793685	-0.011854	0.000212	0.001417			
59628	6430001	-0.186937	-0.047106	9.791307	-0.008479	-0.001478	-0.002640			
59629	6430026	-0.198674	-0.032956	9.818692	-0.005156	-0.003159	0.001323			
59630	6430051	-0.193641	-0.052773	9.817238	-0.004990	-0.002779	-0.002588	-0.280916	0.996324	-122.884163
59631	6430076	-0.195781	-0.037240	9.820593	-0.006172	-0.002025	-0.005975			
59632	6430101	-0.188164	-0.023440	9.796584	-0.003789	-0.001781	0.000174			
59633	6430126	-0.171964	-0.036398	9.817595	-0.003481	-0.001971	-0.002979			
59634	6430151	-0.177373	-0.048356	9.787433	-0.007884	0.001557	-0.006019	-0.281336	0.995945	-122.868645
59635	6430176	-0.143081	-0.047431	9.789652	-0.004479	-0.000703	-0.003092			
59636	6430201	-0.161832	-0.051511	9.822350	-0.004637	0.000468	-0.000650			
59637	6430226	-0.179452	-0.045770	9.805654	-0.001147	0.003438	-0.001858			
59638	6430251	-0.189282	-0.020788	9.809053	-0.004062	0.000800	0.001791	-0.280724	0.996762	-122.856377
59639	6430276	-0.184875	-0.059068	9.800415	-0.005804	-0.001238	-0.001165			
59640	6430301	-0.188259	-0.065386	9.807145	-0.004536	0.001168	-0.004242			
59641	6430326	-0.159646	-0.067029	9.813224	-0.006403	-0.000666	-0.003405			
59642	6430351	-0.155684	-0.051994	9.829502	-0.004238	0.002748	0.006025	-0.281063	0.997294	-122.844696
59643	6430376	-0.155843	-0.038096	9.817992	-0.003676	0.004417	-0.003837			
59644	6430401	-0.167767	-0.066083	9.807041	-0.005606	0.003298	0.003214			
59645	6430426	-0.143824	-0.079721	9.815071	-0.009404	0.001149	-0.004163			
59646	6430451	-0.160126	-0.073775	9.820430	-0.005835	-0.000273	-0.004950	-0.281927	0.998767	-122.837486
59647	6430476	-0.172652	-0.063520	9.821920	-0.003582	0.001518	-0.001289			
59648	6430501	-0.178119	-0.036715	9.801809	-0.004718	0.002781	-0.004672			
59649	6430526	-0.172545	-0.073181	9.831505	-0.009097	-0.000398	-0.003140			
59650	6430551	-0.157345	-0.064632	9.815619	-0.005923	0.000766	-0.001162	-0.282621	0.999683	-122.835747
59651	6430576	-0.157471	-0.047368	9.801221	-0.005126	-0.000189	0.000814			
59652	6430601	-0.178138	-0.057250	9.780729	-0.002506	0.000378	0.003324			
59653	6430626	-0.172267	-0.051763	9.830071	-0.004520	-0.004955	0.002588			
59654	6430651	-0.166083	-0.056842	9.827161	-0.003453	-0.000681	-0.003678	-0.282175	0.999147	-122.819954
59655	6430676	-0.171611	-0.069188	9.822397	-0.003359	0.000614	0.000440			
59656	6430701	-0.153000	-0.069242	9.809366	-0.004347	0.003439	-0.001024			
59657	6430726	-0.148529	-0.050795	9.817490	-0.004569	0.006336	-0.003250			
59658	6430751	-0.141841	-0.079448	9.803079	-0.004411	0.001442	-0.001289	-0.281905	1.001079	-122.806450
59659	6430776	-0.187058	-0.040943	9.795146	-0.002435	0.001729	-0.000779			
59660	6430801	-0.179835	-0.054440	9.811413	-0.005208	0.000325	-0.002190			
59661	6430826	-0.189393	-0.056094	9.816740	-0.008938	0.000966	-0.002946			
59662	6430851	-0.177997	-0.061576	9.844959	-0.004564	-0.001724	0.000750	-0.282274	1.001511	-122.798813
59663	6430876	-0.183229	-0.037593	9.792733	-0.005871	-0.000787	-0.000140			
59664	6430901	-0.196124	-0.070016	9.790886	-0.007460	-0.003587	-0.001626			
59665	6430926	-0.167162	-0.070404	9.811831	-0.005843	-0.003621	0.002536			
59666	6430951	-0.196210	-0.041574	9.821552	-0.010611	-0.003003	-0.003217	-0.283873	1.000184	-122.791626
59667	6430976	-0.191520	-0.068224	9.803801	-0.004642	0.000665	-0.000134			
59668	6431001	-0.170094	-0.065548	9.798423	-0.009537	0.001733	0.000012			
59669	6431026	-0.168662	-0.073435	9.826215	-0.001746	-0.004141	-0.002925			
59670	6431051	-0.195160	-0.042780	9.814365	-0.002193	-0.004275	-0.002922	-0.283810	0.999567	-122.783363
59671	6431076	-0.184906	-0.025864	9.798966	-0.008845	0.002204	0.000779			
59672	6431101	-0.167241	-0.063505	9.799367	-0.000302	-0.001137	-0.000669			
59673	6431126	-0.169947	-0.040923	9.806566	-0.002305	0.001341	-0.003533			
59674	6431151	-0.178202	-0.040854	9.823374	-0.007527	0.002998	-0.001851	-0.283870	1.000589	-122.775810
59675	6431176	-0.175708	-0.045966	9.821928	-0.001611	0.000000	-0.002906			
59676	6431201	-0.179405	-0.035058	9.786475	-0.005509	-0.002395	-0.001562			
59677	6431226	-0.174672	-0.037921	9.795082	-0.001644	-0.001428	-0.004897			
59678	6431251	-0.166230	-0.066369	9.799838	0.000530	-0.001252	-0.001700	-0.282404	1.000102	-122.768173
59679	6431276	-0.161386	-0.046653	9.817546	-0.003883	0.000992	-0.000910			
59680	6431301	-0.158726	-0.053400	9.791649	-0.005522	-0.002205	-0.004253			
59681	6431326	-0.156004	-0.054054	9.806977	-0.006680	0.000294	-0.003344			
59682	6431351	-0.156237	-0.044335	9.823279	-0.003387	0.003453	-0.003140	-0.282549	1.000705	-122.759903
59683	6431376	-0.170649	-0.058077	9.803693	-0.011170	-0.000934	0.003082			
59684	6431401	-0.136645	-0.065336	9.784351	-0.006200	-0.000663	-0.001360			
59685	6431426	-0.142012	-0.068599	9.807394	-0.003159	0.002363	-0.000906			
59686	6431451	-0.145428	-0.063143	9.818427	-0.008334	-0.000516	-0.004879	-0.284022	1.000984	-122.749603
59687	6431476	-0.172579	-0.029492	9.831013	-0.005080	-0.003670	0.000805			
59688	6431501	-0.181203	-0.041177	9.779780	-0.007957	-0.001524	0.002939			
59689	6431526	-0.162598	-0.053700	9.809894	-0.007305	-0.002562	-0.004055			
59690	6431551	-0.146451	-0.056392	9.809803	-0.006604	-0.001885	0.003695	-0.285200	0.999857	-122.741959
59691	6431576	-0.179364	-0.048656	9.808535	-0.004667	-0.000174	0.001848			
59692	6431601	-0.166824	-0.026219	9.807980	-0.004283	-0.000629	-0.002137			
59693	6431626	-0.178567	-0.046582	9.827228	-0.004856	-0.002766	-0.000925			
59694	6431651	-0.184277	-0.047550	9.825330	-0.001997	0.001600	-0.005327	-0.284807	0.999817	-122.732079
59695	6431676	-0.179181	-0.054621	9.794630	-0.005804	-0.005233	0.000352			
59696	6431701	-0.176496	-0.074743	9.780240	-0.001179	-0.001666	0.000866			
59697	6431726	-0.174048	-0.049789	9.792213	-0.002177	0.001347	-0.003147			
59698	6431751	-0.161160	-0.052085	9.800293	-0.002497	-0.004801	-0.002928	-0.283816	0.998576	-122.721504
59699	6431776	-0.202961	-0.059196	9.795238	-0.004913	-0.003092	-0.002141			
59700	6431801	-0.166742	-0.080594	9.827171	-0.005598	0.000182	-0.004885			
59701	6431826	-0.187023	-0.058247	9.838284	-0.004488	-0.003852	0.002918			
59702	6431851	-0.183699	-0.047690	9.806633	-0.000487	0.000863	-0.000277	-0.283372	0.997973	-122.709885
59703	6431876	-0.174200	-0.011856	9.826231	-0.003564	-0.001460	-0.005148			
59704	6431901	-0.174589	-0.047689	9.807548	-0.005056	-0.006768	-0.000434			
59705	6431926	-0.199800	-0.028402	9.831637	-0.005129	0.000206	0.001152			
59706	6431951	-0.207315	-0.050373	9.865715	-0.004202	-0.002754	0.001705	-0.283277	0.996675	-122.700508
59707	6431976	-0.184783	-0.047218	9.833485	-0.004065	-0.001590	-0.000855			
59708	6432001	-0.210043	-0.034462	9.812523	-0.008155	-0.001861	-0.002892			
59709	6432026	-0.163464	-0.072499	9.825718	-0.005177	-0.000577	0.001010			
59710	6432051	-0.167702	-0.071490	9.820457	-0.004588	-0.005157	-0.001131	-0.283762	0.995599	-122.688133
59711	6432076	-0.170452	-0.045297	9.812806	-0.003766	0.003453	-0.002111			
59712	6432101	-0.176702	-0.045876	9.812351	-0.005755	0.007941	-0.001055			
59713	6432126	-0.170055	-0.068985	9.810889	-0.003320	-0.002804	-0.000672			
59714	6432151	-0.184973	-0.036224	9.825335	-0.006083	0.003728	-0.003709	-0.283818	0.997605	-122.678764
59715	6432176	-0.187893	-0.046544	9.785573	-0.004296	0.001761	-0.002183			
59716	6432201	-0.175047	-0.053806	9.805153	-0.006866	0.002430	0.001289			
59717	6432226	-0.159763	-0.061500	9.823298	-0.006093	-0.002010	0.000685			
59718	6432251	-0.134783	-0.043648	9.825086	-0.006509	0.000949	-0.000578	-0.284551	0.998300	-122.667877
59719	6432276	-0.169317	-0.029063	9.836758	-0.004306	-0.000052	-0.003152			
59720	6432301	-0.173764	-0.038908	9.796035	-0.004992	0.001425	-0.002506			
59721	6432326	-0.173739	-0.051301	9.829587	-0.007708	-0.003725	-0.001499			
59722	6432351	-0.179769	-0.057314	9.817155	0.000326	-0.002868	-0.000876	-0.284287	0.997795	-122.659515
59723	6432376	-0.179749	-0.021321	9.818591	-0.005549	-0.003178	-0.003293			
59724	6432401	-0.155333	-0.067907	9.811295	-0.006939	-0.003973	-0.004388			
59725	6432426	-0.154907	-0.072979	9.836221	-0.005031	-0.003612	-0.000927			
59726	6432451	-0.180342	-0.051656	9.815246	-0.005032	-0.000893	0.002868	-0.284858	0.996369	-122.650894
59727	6432476	-0.156669	-0.073457	9.804111	-0.002441	-0.000334	-0.000341			
59728	6432501	-0.155172	-0.075269	9.795473	-0.007504	-0.000110	-0.002439			
59729	6432526	-0.172898	-0.057218	9.782613	-0.004162	-0.003028	-0.007401			
59730	6432551	-0.179579	-0.066874	9.791766	0.000118	0.002037	-0.001034	-0.284216	0.996406	-122.644913
59731	6432576	-0.144922	-0.039130	9.833293	-0.003594	0.001901	-0.000715			
59732	6432601	-0.157464	-0.048414	9.807462	-0.005953	-0.000462	-0.001357			
59733	6432626	-0.140999	-0.069593	9.809303	-0.006209	-0.002731	-0.003551			
59734	6432651	-0.152887	-0.040292	9.807919	-0.007033	0.003459	0.000201	-0.284821	0.996956	-122.632607
59735	6432676	-0.172939	-0.033478	9.813284	-0.004731	0.001301	-0.002627			
59736	6432701	-0.181002	-0.041978	9.834428	-0.004523	-0.003347	-0.001951			
59737	6432726	-0.177393	-0.019218	9.808040	-0.003697	0.001127	-0.001547			
59738	6432751	-0.169272	-0.028009	9.832438	-0.003658	-0.004107	-0.000739	-0.284545	0.996479	-122.624863
59739	6432776	-0.188673	-0.039978	9.820085	-0.005065	0.001745	-0.003977			
59740	6432801	-0.158645	-0.041561	9.827602	-0.001885	0.000778	0.001012			
59741	6432826	-0.162020	-0.053975	9.793103	-0.009336	-0.004983	-0.001824			
59742	6432851	-0.169666	-0.054905	9.793629	-0.002500	-0.002606	-0.003426	-0.284583	0.995994	-122.614792
59743	6432876	-0.176786	0.003270	9.825760	-0.002035	-0.000779	-0.000726			
59744	6432901	-0.162545	-0.013007	9.784949	-0.004178	-0.002046	-0.001691			
59745	6432926	-0.159006	-0.047734	9.823769	-0.008039	-0.001475	-0.004371			
59746	6432951	-0.154610	-0.042601	9.798818	-0.008041	-0.001407	-0.002511	-0.285127	0.995417	-122.606529
59747	6432976	-0.172986	-0.059619	9.784535	-0.005658	0.002514	-0.002050			
59748	6433001	-0.175779	-0.037286	9.814268	-0.001830	0.000709	-0.000782			
59749	6433026	-0.151595	-0.033423	9.824203	-0.006585	0.001068	-0.004360			
59750	6433051	-0.157361	-0.045830	9.863062	0.000903	-0.002466	0.002912	-0.284350	0.995921	-122.596252
59751	6433076	-0.177503	-0.044388	9.808518	-0.003232	-0.003183	0.004071			
59752	6433101	-0.170548	-0.040256	9.821903	-0.005776	0.000060	0.000247			
59753	6433126	-0.179821	-0.053422	9.809970	-0.005436	0.001216	-0.004680			
59754	6433151	-0.185565	-0.046842	9.808083	-0.003831	-0.002745	0.000548	-0.284294	0.995500	-122.585136
59755	6433176	-0.160316	-0.049263	9.801245	-0.004347	-0.000568	-0.001562			
59756	6433201	-0.192462	-0.030780	9.805243	-0.006109	0.000897	0.001730			
59757	6433226	-0.164876	-0.048577	9.844887	-0.004326	0.000857	-0.000975			
59758	6433251	-0.159607	-0.057084	9.784465	-0.005530	-0.000077	-0.005330	-0.284545	0.995898	-122.572990
59759	6433276	-0.153712	-0.075551	9.784918	-0.006209	0.001602	0.000957			
59760	6433301	-0.171285	-0.043560	9.790275	-0.009514	0.002891	-0.001973			
59761	6433326	-0.185041	-0.053122	9.810954	-0.009032	-0.002459	-0.003859			
59762	6433351	-0.165091	-0.056238	9.818047	-0.004835	0.000653	-0.002640	-0.286129	0.996524	-122.563644
59763	6433376	-0.186701	-0.026299	9.798487	-0.001512	-0.003098	0.000153			
59764	6433401	-0.180746	-0.053433	9.809017	-0.005172	-0.001167	-0.003925			
59765	6433426	-0.167373	-0.054211	9.810384	-0.003380	-0.005199	-0.002351			
59766	6433451	-0.178499	-0.043079	9.814264	-0.003707	-0.004813	-0.001644	-0.285447	0.994719	-122.554184
59767	6433476	-0.169597	-0.024653	9.795528	-0.005613	-0.001043	-0.001173			
59768	6433501	-0.156374	-0.057352	9.804106	-0.006072	-0.002852	-0.001052			
59769	6433526	-0.179335	-0.016502	9.815229	-0.004540	-0.002310	0.001132			
59770	6433551	-0.180271	-0.029088	9.827706	-0.005554	0.005223	-0.003569	-0.285905	0.994825	-122.549156
59771	6433576	-0.159443	-0.045735	9.816104	-0.006799	-0.001901	-0.000276			
59772	6433601	-0.173620	-0.064012	9.822408	-0.005899	0.004058	-0.002167			
59773	6433626	-0.187466	-0.045325	9.804250	-0.000989	-0.001802	-0.002338			
59774	6433651	-0.179311	-0.058335	9.822906	-0.000498	-0.002816	0.001115	-0.285272	0.994719	-122.539650
59775	6433676	-0.162889	-0.076574	9.810851	-0.008872	0.000378	-0.007506			
59776	6433701	-0.183773	-0.072334	9.800406	-0.003324	-0.002678	-0.000285			
59777	6433726	-0.187185	-0.058246	9.778375	-0.001936	-0.000133	-0.001045			
59778	6433751	-0.192005	-0.073297	9.825864	-0.003901	-0.004819	-0.001706	-0.285207	0.993921	-122.532516
59779	6433776	-0.190337	-0.055660	9.817694	-0.008737	0.000583	-0.003141			
59780	6433801	-0.192700	-0.057590	9.818665	-0.009638	0.002632	-0.004403			
59781	6433826	-0.181751	-0.060381	9.826278	-0.006317	-0.001249	-0.003415			
59782	6433851	-0.173926	-0.046170	9.839182	-0.001676	0.001931	-0.002639	-0.286344	0.994711	-122.520767
59783	6433876	-0.204949	-0.035223	9.838380	-0.005141	-0.003937	-0.002593			
59784	6433901	-0.176520	-0.060720	9.825776	-0.001919	0.003675	-0.002116			
59785	6433926	-0.175510	-0.055373	9.816177	-0.003368	-0.003456	-0.002663			
59786	6433951	-0.164784	-0.059657	9.856874	-0.003302	-0.001389	-0.002205	-0.285661	0.994227	-122.517517
59787	6433976	-0.166363	-0.063344	9.816607	-0.003229	-0.003840	-0.002092			
59788	6434001	-0.197089	-0.081575	9.802881	-0.007945	0.001758	-0.003713			
59789	6434026	-0.174101	-0.090818	9.809954	-0.002111	-0.002588	-0.001572			
59790	6434051	-0.175568	-0.053551	9.818099	-0.006410	0.000110	0.000636	-0.285825	0.993815	-122.506920
59791	6434076	-0.180282	-0.046579	9.794640	-0.004458	0.000592	-0.003727			
59792	6434101	-0.169449	-0.079234	9.798429	-0.004902	0.000717	-0.002059			
59793	6434126	-0.143571	-0.073416	9.841429	-0.006254	0.000818	-0.004363			
59794	6434151	-0.146275	-0.085761	9.837132	-0.007817	-0.000040	-0.000589	-0.286536	0.994360	-122.504456
59795	6434176	-0.186424	-0.062244	9.817200	-0.010286	-0.001256	-0.005324			
59796	6434201	-0.175109	-0.085067	9.800367	-0.004037	0.001572	-0.002952			
59797	6434226	-0.159024	-0.046280	9.821849	-0.008552	0.000452	-0.004932			
59798	6434251	-0.153892	-0.079960	9.824703	-0.005096	0.003108	-0.000381	-0.287902	0.995165	-122.504974
59799	6434276	-0.185293	-0.042753	9.822456	-0.001514	0.002444	-0.007184			
59800	6434301	-0.170277	-0.050978	9.808481	-0.006510	-0.002988	0.000875			
59801	6434326	-0.173647	-0.062201	9.824327	-0.010261	0.002235	-0.003961			
59802	6434351	-0.191633	-0.054671	9.787515	-0.004397	0.005051	-0.003445	-0.288511	0.996366	-122.496193
59803	6434376	-0.184127	-0.060677	9.818141	-0.000250	0.003716	0.001466			
59804	6434401	-0.176744	-0.059658	9.784077	-0.004055	0.002153	-0.003265			
59805	6434426	-0.153726	-0.046154	9.820385	-0.003915	-0.002435	-0.003040			
59806	6434451	-0.141569	-0.074170	9.830873	-0.005466	0.000323	-0.001033	-0.287813	0.997143	-122.483749
59807	6434476	-0.128354	-0.070816	9.837519	-0.006290	0.000302	-0.000720			
59808	6434501	-0.147266	-0.064767	9.804541	-0.002107	0.000817	-0.007586			
59809	6434526	-0.167880	-0.027422	9.826207	-0.003223	0.000159	-0.004826			
59810	6434551	-0.149802	-0.047577	9.793049	-0.003542	-0.000307	-0.008421	-0.287364	0.997514	-122.476440
59811	6434576	-0.141437	-0.035867	9.807378	-0.004965	0.000523	-0.002314			
59812	6434601	-0.147433	-0.055952	9.814125	-0.002405	0.000302	-0.005022			
59813	6434626	-0.144312	-0.058854	9.786778	-0.007075	-0.003512	0.000615			
59814	6434651	-0.136617	-0.048895	9.824610	-0.005627	-0.000583	-0.000982	-0.287586	0.997288	-122.468887
59815	6434676	-0.156491	-0.015148	9.808886	-0.002021	0.000703	-0.001937			
59816	6434701	-0.159106	-0.027899	9.800756	-0.004511	-0.001799	-0.002715			
59817	6434726	-0.150235	-0.029031	9.820841	-0.003669	0.003955	-0.007111			
59818	6434751	-0.156365	-0.033951	9.828526	-0.001183	-0.001539	-0.001252	-0.286575	0.997716	-122.462509
59819	6434776	-0.156877	-0.058227	9.799795	-0.004040	0.003569	-0.003840			
59820	6434801	-0.157137	-0.061277	9.781097	-0.005224	-0.001419	-0.001107			
59821	6434826	-0.157806	-0.057321	9.803634	-0.005247	-0.000845	-0.003798			
59822	6434851	-0.166569	-0.048053	9.807025	-0.006828	0.001338	0.002883	-0.286973	0.998335	-122.452194
59823	6434876	-0.169022	-0.042291	9.804641	-0.002427	0.003210	-0.004552			
59824	6434901	-0.224859	-0.035809	9.826488	-0.008766	-0.005044	-0.006691			
59825	6434926	-0.195923	-0.056463	9.807180	-0.006001	-0.001112	-0.002253			
59826	6434951	-0.178509	-0.037550	9.792232	-0.007544	0.001644	0.002056	-0.287871	0.998385	-122.442551
59827	6434976	-0.165431	-0.035892	9.826664	0.000839	0.005528	-0.002374			
59828	6435001	-0.166410	-0.058957	9.808463	-0.005384	-0.002201	-0.002271			
59829	6435026	-0.194703	-0.040182	9.798065	-0.006650	0.003597	-0.001651			
59830	6435051	-0.199396	-0.017764	9.821076	-0.000727	-0.001921	-0.004007	-0.286931	0.999340	-122.433243
59831	6435076	-0.170551	-0.032382	9.805614	-0.002919	0.001149	0.002685			
59832	6435101	-0.215042	-0.019262	9.813494	-0.001934	-0.000468	-0.007710			
59833	6435126	-0.189255	-0.025707	9.815770	-0.006293	0.000177	-0.000259			
59834	6435151	-0.190482	-0.037780	9.801398	-0.004144	0.002855	-0.005254	-0.286473	1.000111	-122.425102
59835	6435176	-0.169360	-0.047578	9.804159	-0.007570	-0.001977	-0.001681			
59836	6435201	-0.184991	-0.040679	9.776921	-0.005719	-0.002080	-0.005341			
59837	6435226	-0.176580	-0.042947	9.810431	-0.002694	-0.004542	-0.003631			
59838	6435251	-0.184246	-0.045402	9.808552	-0.002137	0.000115	-0.005086	-0.286434	0.999132	-122.417183
59839	6435276	-0.170508	-0.036274	9.808479	-0.006588	0.002056	0.003853			
59840	6435301	-0.186979	-0.051558	9.802823	-0.005734	0.000499	-0.006293			
59841	6435326	-0.173194	-0.089091	9.818572	-0.005533	-0.001878	-0.002261			
59842	6435351	-0.186082	-0.057107	9.827261	-0.003886	0.001056	0.000694	-0.286884	0.999625	-122.408356
59843	6435376	-0.199183	-0.064283	9.816785	-0.008865	-0.005946	-0.005287			
59844	6435401	-0.197788	-0.060815	9.811510	-0.004579	-0.003538	-0.002401			
59845	6435426	-0.173150	-0.064157	9.835340	-0.002782	-0.001964	-0.003871			
59846	6435451	-0.161643	-0.075016	9.838646	-0.003254	0.001264	-0.002384	-0.287036	0.998400	-122.398071
59847	6435476	-0.182106	-0.037268	9.837305	-0.005658	0.000314	-0.002636			
59848	6435501	-0.176837	-0.056096	9.797977	-0.005364	-0.001104	-0.003476			
59849	6435526	-0.160343	-0.059487	9.820895	-0.001261	0.003175	0.000058			
59850	6435551	-0.150026	-0.034610	9.810775	-0.005688	0.001022	-0.003527	-0.286960	0.999131	-122.391502
59851	6435576	-0.144442	-0.061933	9.806442	-0.004467	-0.001094	-0.004897			
59852	6435601	-0.151645	-0.058125	9.799771	-0.002666	0.003353	0.002500			
59853	6435626	-0.143091	-0.058221	9.809308	-0.004193	0.001326	0.006530			
59854	6435651	-0.154550	-0.067293	9.834771	-0.004569	0.000530	0.000119	-0.286551	0.999970	-122.381500
59855	6435676	-0.154299	-0.073589	9.810810	-0.006618	-0.001441	0.000244			
59856	6435701	-0.146240	-0.063867	9.803100	-0.008035	-0.005604	-0.000870			
59857	6435726	-0.154085	-0.083871	9.803141	-0.005382	-0.004584	-0.000423			
59858	6435751	-0.164949	-0.057825	9.796958	-0.006442	0.000951	0.000314	-0.287672	0.998686	-122.371254
59859	6435776	-0.153465	-0.067449	9.812717	-0.006330	-0.000463	0.001010			
59860	6435801	-0.152687	-0.080400	9.794021	-0.006729	-0.002486	-0.003740			
59861	6435826	-0.152067	-0.071435	9.832359	-0.002824	-0.002480	-0.003360			
59862	6435851	-0.172388	-0.046535	9.831978	-0.003351	-0.002173	-0.006434	-0.287783	0.997832	-122.361694
59863	6435876	-0.167400	-0.057049	9.805594	-0.007103	0.001715	-0.000578			
59864	6435901	-0.162118	-0.066242	9.826650	0.001198	-0.002411	-0.006197			
59865	6435926	-0.186403	-0.055954	9.810484	-0.008774	-0.004785	-0.006178			
59866	6435951	-0.191193	-0.032663	9.837825	-0.005512	-0.002204	-0.001559	-0.288037	0.996966	-122.353470
59867	6435976	-0.155837	-0.076667	9.827118	-0.005215	0.000516	-0.002258			
59868	6436001	-0.151710	-0.086164	9.801216	-0.003144	-0.002280	0.000805			
59869	6436026	-0.188980	-0.055977	9.843082	-0.002013	-0.003746	-0.000556			
59870	6436051	-0.141272	-0.055426	9.816008	-0.005871	-0.000644	0.004150	-0.287686	0.996334	-122.343880
59871	6436076	-0.168165	-0.073708	9.816146	0.001433	0.000830	-0.000474			
59872	6436101	-0.185934	-0.067116	9.832050	-0.000666	-0.002250	-0.006253			
59873	6436126	-0.186347	-0.064889	9.811920	-0.000100	-0.001463	-0.002725			
59874	6436151	-0.171089	-0.064583	9.803699	-0.000268	0.001962	-0.001810	-0.284983	0.996439	-122.334373
59875	6436176	-0.193623	-0.054633	9.816277	-0.001916	-0.000581	-0.000080			
59876	6436201	-0.193792	-0.057754	9.772653	-0.001334	-0.000772	0.000109			
59877	6436226	-0.170771	-0.020721	9.819979	-0.001267	-0.000831	-0.001892			
59878	6436251	-0.188127	-0.048201	9.832054	-0.004789	-0.000830	-0.001365	-0.283649	0.996255	-122.327774
59879	6436276	-0.175979	-0.057229	9.815223	-0.002064	-0.001873	0.000423			
59880	6436301	-0.195000	-0.057406	9.812450	-0.000894	-0.001031	-0.005086			
59881	6436326	-0.187082	-0.049336	9.816718	-0.001009	0.001241	-0.000271			
59882	6436351	-0.170241	-0.065468	9.829110	-0.003329	-0.000545	-0.000466	-0.282034	0.996182	-122.319099
59883	6436376	-0.186824	-0.055300	9.801861	-0.003812	-0.005597	-0.002161			
59884	6436401	-0.167034	-0.068435	9.776361	-0.004284	-0.002755	0.000098			
59885	6436426	-0.163958	-0.067699	9.820442	-0.008872	-0.001754	-0.006291			
59886	6436451	-0.163946	-0.060768	9.802699	-0.007546	-0.002752	-0.001813	-0.282896	0.994579	-122.310547
59887	6436476	-0.168236	-0.051457	9.779714	-0.008507	0.001299	-0.001149			
59888	6436501	-0.164203	-0.029021	9.775376	-0.004414	-0.000305	0.001523			
59889	6436526	-0.165827	-0.048931	9.776820	-0.001945	-0.004086	-0.004014			
59890	6436551	-0.148167	-0.064192	9.797841	-0.002772	-0.000158	-0.004764	-0.282770	0.994352	-122.300812
59891	6436576	-0.167036	-0.040771	9.799349	-0.002259	-0.001696	-0.000094			
59892	6436601	-0.172163	-0.019184	9.808487	-0.005502	-0.000453	0.000434			
59893	6436626	-0.145686	-0.042418	9.804039	0.000881	0.003916	-0.004046			
59894	6436651	-0.176945	-0.022414	9.830560	-0.005396	-0.004013	-0.002530	-0.281870	0.994275	-122.293579
59895	6436676	-0.150525	-0.041863	9.819400	-0.006919	0.001912	0.000447			
59896	6436701	-0.186008	-0.022939	9.827727	-0.004740	-0.000246	-0.000779			
59897	6436726	-0.129685	-0.032608	9.823614	-0.003047	0.000881	-0.001486			
59898	6436751	-0.171453	-0.002667	9.814703	-0.005887	-0.000463	-0.002065	-0.282155	0.994815	-122.282738
59899	6436776	-0.161071	-0.024150	9.801721	-0.005740	0.001030	-0.000897			
59900	6436801	-0.159606	-0.022045	9.792119	-0.000802	-0.001605	-0.002405			
59901	6436826	-0.151801	-0.045513	9.811266	-0.003950	-0.003606	-0.007600			
59902	6436851	-0.146427	-0.050497	9.799737	-0.005633	0.000070	0.003262	-0.281809	0.994465	-122.273117
59903	6436876	-0.151705	-0.036426	9.775316	-0.001524	-0.000773	0.000034			
59904	6436901	-0.150064	-0.055554	9.783941	-0.006212	-0.002079	0.001651			
59905	6436926	-0.176463	-0.052894	9.801332	-0.011644	0.001369	-0.004026			
59906	6436951	-0.168897	-0.052371	9.812319	-0.002471	0.000565	-0.002770	-0.282277	0.994576	-122.263939
59907	6436976	-0.153980	-0.055783	9.799301	-0.002646	-0.001568	0.001317			
59908	6437001	-0.170764	-0.057661	9.813283	-0.005269	0.000125	-0.004114			
59909	6437026	-0.161228	-0.050633	9.797412	-0.002584	0.000176	-0.003675			
59910	6437051	-0.184927	-0.041092	9.832041	-0.007218	0.003062	-0.003576	-0.282166	0.995073	-122.256142
59911	6437076	-0.195982	-0.056108	9.812449	-0.007120	0.000100	-0.000766			
59912	6437101	-0.189609	-0.065703	9.797565	-0.003003	0.001726	0.002626			
59913	6437126	-0.165038	-0.059464	9.811340	-0.007164	0.001644	0.000253			
59914	6437151	-0.187367	-0.062094	9.812407	-0.002025	0.002703	-0.003977	-0.282263	0.996201	-122.246361
59915	6437176	-0.198667	-0.024509	9.793282	-0.007977	-0.001018	-0.000972			
59916	6437201	-0.205108	-0.040762	9.796679	-0.004080	-0.000879	-0.000079			
59917	6437226	-0.212438	-0.032647	9.822109	-0.003193	-0.006747	-0.001392			
59918	6437251	-0.195487	-0.060822	9.812926	-0.005430	-0.000647	0.000370	-0.282555	0.995114	-122.235992
59919	6437276	-0.174182	-0.076537	9.800845	-0.009099	-0.004594	-0.004894			
59920	6437301	-0.197056	-0.040297	9.807183	-0.001964	-0.002576	0.004397			
59921	6437326	-0.198305	-0.062755	9.812950	-0.005220	-0.001219	-0.000145			
59922	6437351	-0.176596	-0.061568	9.844952	-0.005023	0.001177	0.003973	-0.282925	0.994329	-122.225311
59923	6437376	-0.182725	-0.045335	9.801846	-0.008225	0.000529	-0.001918			
59924	6437401	-0.178558	-0.077639	9.810442	-0.003308	-0.001189	-0.000791			
59925	6437426	-0.177263	-0.074501	9.822909	-0.006586	-0.000536	0.000052			
59926	6437451	-0.181031	-0.074102	9.822929	-0.007042	-0.002681	-0.002134	-0.283867	0.994017	-122.216537
59927	6437476	-0.184916	-0.062391	9.800415	-0.006199	0.001407	0.000383			
59928	6437501	-0.182433	-0.068656	9.805189	-0.008416	-0.001413	0.000057			
59929	6437526	-0.179674	-0.060538	9.806615	-0.009046	-0.004272	-0.005662			
59930	6437551	-0.175731	-0.047033	9.830564	-0.004584	-0.001015	0.000754	-0.285250	0.993500	-122.206306
59931	6437576	-0.157941	-0.059995	9.823762	-0.000335	0.001961	-0.002255			
59932	6437601	-0.163681	-0.087146	9.816126	-0.011805	-0.001661	-0.001155			
59933	6437626	-0.140637	-0.090132	9.788214	-0.007592	-0.001664	-0.006945			
59934	6437651	-0.137597	-0.075665	9.806883	-0.004935	-0.002642	-0.003619	-0.286144	0.993165	-122.200310
59935	6437676	-0.135968	-0.087835	9.798741	-0.003251	-0.000602	0.002734			
59936	6437701	-0.143596	-0.089416	9.803091	-0.004889	-0.000326	-0.006166			
59937	6437726	-0.148980	-0.042492	9.802139	-0.005016	0.000189	-0.004888			
59938	6437751	-0.145905	-0.050360	9.788715	-0.007550	-0.000753	-0.001419	-0.286460	0.993191	-122.192139
59939	6437776	-0.150774	-0.075482	9.783464	-0.006510	-0.002992	0.000103			
59940	6437801	-0.161594	-0.065561	9.813237	-0.002488	-0.000723	-0.000665			
59941	6437826	-0.175501	-0.031529	9.837748	-0.004047	-0.001909	-0.000474			
59942	6437851	-0.177015	-0.049751	9.820981	-0.002305	-0.004798	-0.003763	-0.285997	0.991940	-122.182533
59943	6437876	-0.165354	-0.029116	9.809894	-0.008233	-0.001276	-0.000587			
59944	6437901	-0.155361	-0.035752	9.817993	-0.006764	0.000806	-0.004944			
59945	6437926	-0.162399	-0.079040	9.818994	-0.008371	-0.001158	-0.004175			
59946	6437951	-0.150360	-0.048854	9.817010	-0.001009	-0.001161	-0.003104	-0.286847	0.991775	-122.172699
59947	6437976	-0.192160	-0.047312	9.801403	-0.004755	-0.006063	-0.001389			
59948	6438001	-0.176798	-0.066664	9.804688	-0.008550	0.000715	-0.003721			
59949	6438026	-0.171234	-0.054636	9.806578	0.000463	0.002998	-0.003606			
59950	6438051	-0.183359	-0.036014	9.810465	-0.009196	-0.001301	-0.004688	-0.287363	0.991489	-122.165108
59951	6438076	-0.159532	-0.060781	9.778236	-0.004736	0.001693	0.000317			
59952	6438101	-0.165950	-0.064294	9.818536	-0.004545	-0.000308	-0.000401			
59953	6438126	-0.165046	-0.056683	9.815167	-0.004569	0.000271	-0.001289			
59954	6438151	-0.167848	-0.057045	9.805607	-0.005165	0.000577	-0.005135	-0.287429	0.992049	-122.156052
59955	6438176	-0.178299	-0.055189	9.797024	-0.008737	-0.001551	-0.003731			
59956	6438201	-0.181417	-0.043976	9.810458	-0.003552	0.002611	-0.003722			
59957	6438226	-0.182400	-0.010021	9.820525	-0.005299	0.003093	-0.005379			
59958	6438251	-0.202169	-0.020159	9.815830	-0.007227	-0.000878	-0.003403	-0.288350	0.992752	-122.147881
59959	6438276	-0.166617	-0.046729	9.813736	-0.004084	0.003314	-0.000124			
59960	6438301	-0.205071	-0.013354	9.805775	-0.003022	0.000307	0.000760			
59961	6438326	-0.195041	-0.056142	9.824428	0.001736	-0.004981	-0.003389			
59962	6438351	-0.168017	-0.082772	9.814239	-0.004239	-0.002506	-0.004834	-0.287071	0.992439	-122.139893
59963	6438376	-0.192737	-0.047819	9.804767	-0.002247	0.001466	-0.005586			
59964	6438401	-0.192713	-0.049283	9.805243	-0.006507	0.000486	-0.005896			
59965	6438426	-0.182495	-0.048792	9.781706	-0.007273	-0.003523	-0.002007			
59966	6438451	-0.180245	-0.057155	9.802789	-0.004315	0.000273	-0.003478	-0.287353	0.992490	-122.135201
59967	6438476	-0.211862	-0.035745	9.802461	-0.008647	-0.002782	-0.005779			
59968	6438501	-0.204876	-0.033479	9.817283	-0.004143	0.001578	0.003079			
59969	6438526	-0.183699	-0.052208	9.819097	-0.001918	-0.000581	-0.001495			
59970	6438551	-0.169984	-0.040026	9.806566	-0.006373	0.000621	-0.000899	-0.287711	0.992565	-122.125153
59971	6438576	-0.195663	-0.033593	9.795189	-0.010672	-0.003198	-0.002511			
59972	6438601	-0.178689	-0.021547	9.801335	-0.009981	-0.002660	-0.000329			
59973	6438626	-0.211464	-0.031900	9.801979	-0.004816	-0.001997	-0.001626			
59974	6438651	-0.185621	-0.050735	9.812882	-0.008440	0.003430	-0.002800	-0.289913	0.992170	-122.114861
59975	6438676	-0.175650	-0.013900	9.832473	-0.005837	-0.002137	-0.000593			
59976	6438701	-0.163211	-0.041276	9.801735	-0.006081	-0.004336	0.000994			
59977	6438726	-0.177673	-0.038030	9.825302	-0.005487	-0.002775	0.002158			
59978	6438751	-0.177405	-0.039651	9.781678	-0.001062	-0.003283	0.000861	-0.289876	0.990624	-122.104591
59979	6438776	-0.170133	-0.052062	9.787870	-0.005277	-0.003284	0.002664			
59980	6438801	-0.194802	-0.043344	9.819160	-0.005639	0.004460	0.003223			
59981	6438826	-0.160312	-0.045435	9.796453	-0.005287	-0.001226	-0.000151			
59982	6438851	-0.160424	-0.046648	9.813712	-0.007349	0.001389	-0.000960	-0.290563	0.991066	-122.094185
59983	6438876	-0.169352	-0.054549	9.824300	-0.008015	-0.003786	0.003375			
59984	6438901	-0.155520	-0.044840	9.792108	-0.009164	-0.002207	-0.002962			
59985	6438926	-0.138671	-0.056784	9.780531	-0.005001	0.001745	-0.003918			
59986	6438951	-0.158628	-0.037434	9.803156	-0.007547	0.005442	-0.004846	-0.292167	0.991477	-122.086029
59987	6438976	-0.135230	-0.050340	9.825090	-0.007921	0.003116	-0.001404			
59988	6439001	-0.155257	-0.072963	9.800747	-0.007527	0.002868	-0.002235			
59989	6439026	-0.146267	-0.067289	9.808361	-0.007381	-0.003776	0.001381			
59990	6439051	-0.139833	-0.054982	9.818876	-0.003435	-0.001395	-0.003937	-0.293270	0.991834	-122.075958
59991	6439076	-0.143820	-0.044017	9.813140	-0.003573	0.003392	-0.001733			
59992	6439101	-0.178139	-0.042213	9.821468	-0.002977	0.000888	0.002103			
59993	6439126	-0.143194	-0.082793	9.804529	-0.003035	-0.001247	0.002541			
59994	6439151	-0.162700	-0.052942	9.821385	-0.005801	-0.003502	-0.004004	-0.292803	0.992011	-122.066086
59995	6439176	-0.161495	-0.044588	9.837200	-0.001763	-0.003758	-0.005493			
59996	6439201	-0.155541	-0.052702	9.811288	-0.004502	-0.000124	-0.005208			
59997	6439226	-0.155563	-0.048987	9.813202	-0.006895	-0.003327	-0.004642			
59998	6439251	-0.133745	-0.087669	9.818379	-0.006396	0.001399	0.000060	-0.292968	0.991415	-122.059242
